------------ Data File Created By ActiGraph Link IMU 9DOF Sensor ActiLife v6.13.3 Firmware v1.7.2 date format M/d/yyyy at 100 Hz  -----------
Serial Number: TAS1E31150129
Start Time 08:58:00
Start Date 2/14/2019
Epoch Period (hh:mm:ss) 00:00:00
Download Time 09:03:03
Download Date 2/14/2019
Current Memory Address: 0
Current Battery Voltage: 4.15     Mode = 12
--------------------------------------------------
Timestamp,Accelerometer X,Accelerometer Y,Accelerometer Z,Temperature,Gyroscope X,Gyroscope Y,Gyroscope Z,Magnetometer X,Magnetometer Y,Magnetometer Z
2019-02-14T08:58:00.0000000,0.012695,-0.005371,0.992188,54.725702,-0.793457,0.244141,0.183105,28.564452,15.673827,8.642578
2019-02-14T08:58:00.0100000,0.012695,-0.002930,0.993652,54.722707,-0.793457,0.366211,0.122070,28.564452,15.673827,8.642578
2019-02-14T08:58:00.0200000,0.014160,-0.004395,0.992676,54.704736,-0.793457,0.305176,0.061035,28.564452,15.673827,8.642578
2019-02-14T08:58:00.0300000,0.013184,-0.002930,0.992676,54.716717,-0.732422,0.244141,0.122070,28.564452,15.673827,8.642578
2019-02-14T08:58:00.0400000,0.010254,-0.003418,0.993652,54.731692,-0.732422,0.183105,0.122070,28.564452,15.673827,8.642578
2019-02-14T08:58:00.0500000,0.013184,-0.002930,1.000000,54.710726,-0.732422,0.183105,0.122070,28.564452,15.673827,8.642578
2019-02-14T08:58:00.0600000,0.012207,-0.000488,0.997070,54.716717,-0.671387,0.122070,0.122070,28.564452,15.673827,8.642578
2019-02-14T08:58:00.0700000,0.012207,-0.000977,0.995605,54.719712,-0.732422,0.122070,0.061035,28.564452,15.673827,8.642578
2019-02-14T08:58:00.0800000,0.012695,-0.002441,0.999023,54.713721,-0.793457,0.244141,0.122070,28.417967,14.648437,7.617187
2019-02-14T08:58:00.0900000,0.009766,-0.004395,0.997070,54.707731,-0.732422,0.244141,0.122070,28.417967,14.648437,7.617187
2019-02-14T08:58:00.1000000,0.010742,-0.004883,0.997070,54.710726,-0.732422,0.244141,0.183105,28.417967,14.648437,7.617187
2019-02-14T08:58:00.1100000,0.012695,-0.005371,0.994141,54.734688,-0.793457,0.305176,0.183105,28.417967,14.648437,7.617187
2019-02-14T08:58:00.1200000,0.014648,-0.003906,0.993652,54.728697,-0.732422,0.183105,0.000000,28.417967,14.648437,7.617187
2019-02-14T08:58:00.1300000,0.015137,-0.004883,0.996582,54.740678,-0.732422,0.183105,0.000000,28.417967,14.648437,7.617187
2019-02-14T08:58:00.1400000,0.013184,-0.003418,0.996582,54.728697,-0.793457,0.244141,0.061035,28.417967,14.648437,7.617187
2019-02-14T08:58:00.1500000,0.014648,-0.005371,0.998535,54.710726,-0.793457,0.244141,0.061035,28.417967,14.648437,7.617187
2019-02-14T08:58:00.1600000,0.012695,-0.003906,0.993652,54.731692,-0.854492,0.305176,0.061035,28.417967,14.648437,7.617187
2019-02-14T08:58:00.1700000,0.011230,-0.003906,0.994629,54.716717,-0.854492,0.305176,0.183105,28.417967,14.648437,7.617187
2019-02-14T08:58:00.1800000,0.011230,-0.003906,0.993652,54.728697,-0.732422,0.183105,0.183105,28.417967,14.648437,7.617187
2019-02-14T08:58:00.1900000,0.013672,-0.002441,0.992188,54.728697,-0.793457,0.305176,0.000000,28.417967,14.648437,7.617187
2019-02-14T08:58:00.2000000,0.009277,-0.001465,0.994629,54.728697,-0.671387,0.305176,0.061035,29.003905,14.941406,8.496093
2019-02-14T08:58:00.2100000,0.011230,-0.001953,0.993652,54.728697,-0.793457,0.244141,0.061035,29.003905,14.941406,8.496093
2019-02-14T08:58:00.2200000,0.010742,-0.002441,0.998047,54.719712,-0.793457,0.244141,0.061035,29.003905,14.941406,8.496093
2019-02-14T08:58:00.2300000,0.010742,-0.004883,0.996582,54.707731,-0.732422,0.244141,0.183105,29.003905,14.941406,8.496093
2019-02-14T08:58:00.2400000,0.012207,-0.005371,0.993164,54.710726,-0.732422,0.183105,0.122070,29.003905,14.941406,8.496093
2019-02-14T08:58:00.2500000,0.013184,-0.006836,0.995605,54.722707,-0.732422,0.122070,0.122070,29.003905,14.941406,8.496093
2019-02-14T08:58:00.2600000,0.011719,-0.003418,0.993164,54.719712,-0.732422,0.244141,0.061035,29.003905,14.941406,8.496093
2019-02-14T08:58:00.2700000,0.013184,-0.003418,0.991699,54.716717,-0.793457,0.183105,0.000000,29.003905,14.941406,8.496093
2019-02-14T08:58:00.2800000,0.013672,-0.004883,0.992188,54.713721,-0.732422,0.183105,0.122070,29.003905,14.941406,8.496093
2019-02-14T08:58:00.2900000,0.009277,-0.003906,0.996094,54.710726,-0.732422,0.122070,0.122070,29.003905,14.941406,8.496093
2019-02-14T08:58:00.3000000,0.011719,-0.001953,0.991211,54.707731,-0.732422,0.183105,0.000000,29.003905,14.941406,8.496093
2019-02-14T08:58:00.3100000,0.010742,-0.003418,0.991699,54.692755,-0.732422,0.122070,0.122070,29.003905,14.941406,8.496093
2019-02-14T08:58:00.3200000,0.011230,-0.003906,0.993652,54.686765,-0.671387,0.000000,0.122070,27.539061,14.648437,7.031250
2019-02-14T08:58:00.3300000,0.011719,-0.005859,0.997559,54.692755,-0.732422,0.061035,0.122070,27.539061,14.648437,7.031250
2019-02-14T08:58:00.3400000,0.013184,-0.006348,0.997070,54.692755,-0.793457,0.122070,0.122070,27.539061,14.648437,7.031250
2019-02-14T08:58:00.3500000,0.014160,-0.003906,0.995605,54.704736,-0.732422,0.183105,0.244141,27.539061,14.648437,7.031250
2019-02-14T08:58:00.3600000,0.012695,-0.005371,0.998047,54.707731,-0.732422,0.244141,0.122070,27.539061,14.648437,7.031250
2019-02-14T08:58:00.3700000,0.015625,-0.005859,0.996582,54.698746,-0.793457,0.183105,0.122070,27.539061,14.648437,7.031250
2019-02-14T08:58:00.3800000,0.018066,-0.006836,0.995117,54.692755,-0.732422,0.244141,0.061035,27.539061,14.648437,7.031250
2019-02-14T08:58:00.3900000,0.016113,-0.006348,0.991211,54.713721,-0.671387,0.244141,0.122070,27.539061,14.648437,7.031250
2019-02-14T08:58:00.4000000,0.014648,-0.006348,0.991699,54.704736,-0.732422,0.305176,0.061035,27.539061,14.648437,7.031250
2019-02-14T08:58:00.4100000,0.016113,-0.001465,0.994629,54.710726,-0.732422,0.305176,0.061035,27.539061,14.648437,7.031250
2019-02-14T08:58:00.4200000,0.013672,0.000488,0.995117,54.692755,-0.732422,0.244141,0.122070,27.539061,14.648437,7.031250
2019-02-14T08:58:00.4300000,0.011230,0.000977,0.995117,54.710726,-0.793457,0.244141,0.061035,27.539061,14.648437,7.031250
2019-02-14T08:58:00.4400000,0.009277,-0.000488,0.999023,54.704736,-0.793457,0.305176,0.122070,27.978514,16.259765,8.642578
2019-02-14T08:58:00.4500000,0.010254,-0.001465,0.997070,54.701741,-0.732422,0.366211,0.061035,27.978514,16.259765,8.642578
2019-02-14T08:58:00.4600000,0.011230,0.000977,0.993164,54.716717,-0.793457,0.183105,0.061035,27.978514,16.259765,8.642578
2019-02-14T08:58:00.4700000,0.011719,-0.001465,0.997070,54.707731,-0.732422,0.305176,0.122070,27.978514,16.259765,8.642578
2019-02-14T08:58:00.4800000,0.012695,-0.000977,0.994141,54.707731,-0.732422,0.244141,0.183105,27.978514,16.259765,8.642578
2019-02-14T08:58:00.4900000,0.013184,0.000488,0.993652,54.710726,-0.793457,0.244141,0.122070,27.978514,16.259765,8.642578
2019-02-14T08:58:00.5000000,0.010742,-0.001465,0.997070,54.713721,-0.732422,0.366211,0.061035,27.978514,16.259765,8.642578
2019-02-14T08:58:00.5100000,0.012695,-0.004883,0.991699,54.677779,-0.793457,0.305176,0.061035,27.978514,16.259765,8.642578
2019-02-14T08:58:00.5200000,0.012207,-0.006836,0.993164,54.689760,-0.732422,0.305176,0.061035,27.978514,16.259765,8.642578
2019-02-14T08:58:00.5300000,0.016113,-0.008301,0.997559,54.701741,-0.854492,0.244141,0.183105,27.978514,16.259765,8.642578
2019-02-14T08:58:00.5400000,0.013672,-0.005859,0.995605,54.674784,-0.793457,0.244141,0.183105,27.978514,16.259765,8.642578
2019-02-14T08:58:00.5500000,0.014160,-0.010254,0.996582,54.677779,-0.732422,0.305176,0.122070,27.978514,16.259765,8.642578
2019-02-14T08:58:00.5600000,0.015137,-0.007813,0.996094,54.692755,-0.732422,0.305176,0.183105,27.978514,16.259765,8.642578
2019-02-14T08:58:00.5700000,0.014160,-0.006836,0.998047,54.695750,-0.793457,0.305176,0.122070,28.271483,14.794921,7.763671
2019-02-14T08:58:00.5800000,0.011719,-0.005859,0.994629,54.686765,-0.793457,0.427246,0.183105,28.271483,14.794921,7.763671
2019-02-14T08:58:00.5900000,0.011719,-0.005371,0.993164,54.689760,-0.732422,0.427246,0.061035,28.271483,14.794921,7.763671
2019-02-14T08:58:00.6000000,0.010742,-0.001953,0.991211,54.680774,-0.793457,0.366211,0.061035,28.271483,14.794921,7.763671
2019-02-14T08:58:00.6100000,0.011230,-0.002441,0.994141,54.674784,-0.793457,0.366211,0.122070,28.271483,14.794921,7.763671
2019-02-14T08:58:00.6200000,0.010742,-0.001465,0.993164,54.674784,-0.732422,0.244141,0.122070,28.271483,14.794921,7.763671
2019-02-14T08:58:00.6300000,0.010254,-0.001953,0.995605,54.683770,-0.732422,0.366211,0.122070,28.271483,14.794921,7.763671
2019-02-14T08:58:00.6400000,0.011719,-0.003418,0.996094,54.668794,-0.793457,0.305176,0.061035,28.271483,14.794921,7.763671
2019-02-14T08:58:00.6500000,0.012695,-0.002930,0.992676,54.668794,-0.854492,0.244141,0.122070,28.271483,14.794921,7.763671
2019-02-14T08:58:00.6600000,0.013672,-0.001953,0.999512,54.689760,-0.854492,0.305176,0.183105,28.271483,14.794921,7.763671
2019-02-14T08:58:00.6700000,0.013672,-0.002441,0.997559,54.692755,-0.793457,0.366211,0.122070,28.271483,14.794921,7.763671
2019-02-14T08:58:00.6800000,0.012695,-0.002930,0.992676,54.689760,-0.793457,0.244141,0.122070,28.271483,14.794921,7.763671
2019-02-14T08:58:00.6900000,0.012207,-0.005859,0.993164,54.677779,-0.793457,0.305176,0.122070,27.685546,15.380859,8.056640
2019-02-14T08:58:00.7000000,0.013672,-0.006836,0.998047,54.677779,-0.793457,0.244141,0.061035,27.685546,15.380859,8.056640
2019-02-14T08:58:00.7100000,0.014648,-0.005371,0.997559,54.674784,-0.793457,0.244141,0.122070,27.685546,15.380859,8.056640
2019-02-14T08:58:00.7200000,0.014648,-0.006348,0.992676,54.689760,-0.793457,0.305176,0.061035,27.685546,15.380859,8.056640
2019-02-14T08:58:00.7300000,0.010254,-0.006348,0.996582,54.683770,-0.793457,0.305176,0.061035,27.685546,15.380859,8.056640
2019-02-14T08:58:00.7400000,0.011230,-0.007813,0.995605,54.680774,-0.732422,0.244141,0.061035,27.685546,15.380859,8.056640
2019-02-14T08:58:00.7500000,0.011230,-0.006836,0.993164,54.677779,-0.732422,0.305176,0.122070,27.685546,15.380859,8.056640
2019-02-14T08:58:00.7600000,0.011230,-0.005371,0.991699,54.662803,-0.732422,0.366211,0.061035,27.685546,15.380859,8.056640
2019-02-14T08:58:00.7700000,0.011230,-0.003906,0.993164,54.662803,-0.732422,0.305176,0.183105,27.685546,15.380859,8.056640
2019-02-14T08:58:00.7800000,0.014160,-0.002930,0.991699,54.671789,-0.854492,0.244141,0.183105,27.685546,15.380859,8.056640
2019-02-14T08:58:00.7900000,0.011719,-0.003906,0.992188,54.701741,-0.854492,0.244141,0.122070,27.685546,15.380859,8.056640
2019-02-14T08:58:00.8000000,0.013672,-0.001953,0.993164,54.668794,-0.732422,0.305176,0.122070,27.685546,15.380859,8.056640
2019-02-14T08:58:00.8100000,0.013184,-0.000488,0.996094,54.668794,-0.854492,0.244141,0.183105,28.124999,15.820312,7.617187
2019-02-14T08:58:00.8200000,0.015137,-0.001465,0.994629,54.671789,-0.671387,0.366211,0.122070,28.124999,15.820312,7.617187
2019-02-14T08:58:00.8300000,0.013672,-0.001465,0.995605,54.686765,-0.793457,0.305176,0.122070,28.124999,15.820312,7.617187
2019-02-14T08:58:00.8400000,0.014160,-0.000977,0.999023,54.674784,-0.732422,0.244141,0.122070,28.124999,15.820312,7.617187
2019-02-14T08:58:00.8500000,0.014160,-0.001465,0.998047,54.674784,-0.793457,0.305176,0.122070,28.124999,15.820312,7.617187
2019-02-14T08:58:00.8600000,0.013672,-0.003418,0.991211,54.689760,-0.732422,0.305176,0.061035,28.124999,15.820312,7.617187
2019-02-14T08:58:00.8700000,0.013184,-0.002441,0.992188,54.668794,-0.732422,0.366211,0.122070,28.124999,15.820312,7.617187
2019-02-14T08:58:00.8800000,0.014648,-0.002930,0.989746,54.665799,-0.793457,0.366211,0.122070,28.124999,15.820312,7.617187
2019-02-14T08:58:00.8900000,0.012695,-0.007324,0.995605,54.665799,-0.732422,0.366211,0.122070,28.124999,15.820312,7.617187
2019-02-14T08:58:00.9000000,0.012207,-0.005371,0.995605,54.668794,-0.732422,0.305176,0.183105,28.124999,15.820312,7.617187
2019-02-14T08:58:00.9100000,0.009766,-0.006836,0.994629,54.674784,-0.732422,0.305176,0.122070,28.124999,15.820312,7.617187
2019-02-14T08:58:00.9200000,0.008789,-0.009277,0.996582,54.662803,-0.793457,0.366211,0.122070,28.124999,15.820312,7.617187
2019-02-14T08:58:00.9300000,0.009766,-0.006348,0.996094,54.653818,-0.793457,0.366211,0.122070,28.124999,15.820312,7.617187
2019-02-14T08:58:00.9400000,0.012207,-0.004395,0.996094,54.659808,-0.732422,0.305176,0.061035,27.832030,15.234374,8.203125
2019-02-14T08:58:00.9500000,0.014648,-0.008301,1.000488,54.656813,-0.671387,0.366211,0.122070,27.832030,15.234374,8.203125
2019-02-14T08:58:00.9600000,0.016113,-0.004883,0.997559,54.653818,-0.732422,0.305176,0.183105,27.832030,15.234374,8.203125
2019-02-14T08:58:00.9700000,0.015625,-0.005859,0.994141,54.656813,-0.732422,0.305176,0.122070,27.832030,15.234374,8.203125
2019-02-14T08:58:00.9800000,0.013672,-0.004883,0.993652,54.653818,-0.732422,0.366211,0.122070,27.832030,15.234374,8.203125
2019-02-14T08:58:00.9900000,0.012695,-0.003906,0.993164,54.641837,-0.732422,0.366211,0.122070,27.832030,15.234374,8.203125
2019-02-14T08:58:01.0000000,0.011230,-0.000977,0.992188,54.638842,-0.793457,0.244141,0.122070,27.832030,15.234374,8.203125
2019-02-14T08:58:01.0100000,0.010254,-0.001953,0.995117,54.626861,-0.793457,0.244141,0.061035,27.832030,15.234374,8.203125
2019-02-14T08:58:01.0200000,0.008789,-0.000488,0.994141,54.623866,-0.732422,0.244141,0.122070,27.832030,15.234374,8.203125
2019-02-14T08:58:01.0300000,0.012207,-0.001465,0.997559,54.644832,-0.671387,0.122070,0.061035,27.832030,15.234374,8.203125
2019-02-14T08:58:01.0400000,0.010742,-0.000488,0.995605,54.644832,-0.732422,0.305176,0.122070,27.832030,15.234374,8.203125
2019-02-14T08:58:01.0500000,0.012207,-0.003906,0.996582,54.629856,-0.732422,0.305176,0.122070,27.832030,15.234374,8.203125
2019-02-14T08:58:01.0600000,0.011719,-0.001465,0.994629,54.614881,-0.732422,0.244141,0.122070,27.685546,13.330077,7.763671
2019-02-14T08:58:01.0700000,0.012207,-0.001953,0.997070,54.632852,-0.793457,0.183105,0.061035,27.685546,13.330077,7.763671
2019-02-14T08:58:01.0800000,0.016113,-0.004395,0.990723,54.641837,-0.732422,0.244141,0.061035,27.685546,13.330077,7.763671
2019-02-14T08:58:01.0900000,0.012695,-0.004395,0.996582,54.635847,-0.671387,0.244141,0.061035,27.685546,13.330077,7.763671
2019-02-14T08:58:01.1000000,0.016602,-0.004883,0.995605,54.629856,-0.732422,0.305176,0.061035,27.685546,13.330077,7.763671
2019-02-14T08:58:01.1100000,0.011719,-0.007324,0.998047,54.647828,-0.732422,0.305176,0.061035,27.685546,13.330077,7.763671
2019-02-14T08:58:01.1200000,0.012695,-0.007813,0.994141,54.653818,-0.793457,0.305176,0.122070,27.685546,13.330077,7.763671
2019-02-14T08:58:01.1300000,0.013672,-0.005371,0.994629,54.614881,-0.732422,0.244141,0.122070,27.685546,13.330077,7.763671
2019-02-14T08:58:01.1400000,0.012207,-0.006836,0.997070,54.632852,-0.732422,0.305176,0.061035,27.685546,13.330077,7.763671
2019-02-14T08:58:01.1500000,0.013184,-0.004883,0.997070,54.635847,-0.732422,0.244141,0.183105,27.685546,13.330077,7.763671
2019-02-14T08:58:01.1600000,0.010254,-0.005371,0.995605,54.647828,-0.732422,0.122070,0.122070,27.685546,13.330077,7.763671
2019-02-14T08:58:01.1700000,0.007813,-0.004395,0.996094,54.629856,-0.732422,0.244141,0.061035,27.685546,13.330077,7.763671
2019-02-14T08:58:01.1800000,0.012207,-0.001465,0.995605,54.620871,-0.793457,0.244141,0.122070,26.806639,14.501952,7.763671
2019-02-14T08:58:01.1900000,0.013184,-0.000977,0.997070,54.635847,-0.732422,0.183105,0.061035,26.806639,14.501952,7.763671
2019-02-14T08:58:01.2000000,0.011719,-0.001953,0.995117,54.635847,-0.732422,0.244141,0.061035,26.806639,14.501952,7.763671
2019-02-14T08:58:01.2100000,0.015137,-0.001465,0.991211,54.629856,-0.671387,0.244141,0.061035,26.806639,14.501952,7.763671
2019-02-14T08:58:01.2200000,0.015625,-0.002930,0.999023,54.632852,-0.671387,0.183105,0.122070,26.806639,14.501952,7.763671
2019-02-14T08:58:01.2300000,0.011719,-0.002930,0.994629,54.614881,-0.671387,0.244141,0.122070,26.806639,14.501952,7.763671
2019-02-14T08:58:01.2400000,0.012207,-0.005371,0.996094,54.611885,-0.671387,0.244141,0.122070,26.806639,14.501952,7.763671
2019-02-14T08:58:01.2500000,0.014648,-0.003906,0.994629,54.626861,-0.732422,0.244141,0.122070,26.806639,14.501952,7.763671
2019-02-14T08:58:01.2600000,0.013184,-0.004883,0.998047,54.632852,-0.732422,0.305176,0.061035,26.806639,14.501952,7.763671
2019-02-14T08:58:01.2700000,0.014160,-0.003906,0.995117,54.632852,-0.793457,0.305176,0.122070,26.806639,14.501952,7.763671
2019-02-14T08:58:01.2800000,0.011719,-0.006348,0.992188,54.632852,-0.732422,0.366211,0.061035,26.806639,14.501952,7.763671
2019-02-14T08:58:01.2900000,0.012207,-0.007324,0.995605,54.605895,-0.732422,0.366211,0.122070,26.806639,14.501952,7.763671
2019-02-14T08:58:01.3000000,0.011230,-0.008301,0.995117,54.596909,-0.793457,0.366211,0.061035,28.710936,15.234374,8.203125
2019-02-14T08:58:01.3100000,0.010742,-0.005371,0.996582,54.605895,-0.793457,0.305176,0.183105,28.710936,15.234374,8.203125
2019-02-14T08:58:01.3200000,0.010254,-0.007324,0.997070,54.620871,-0.671387,0.244141,0.183105,28.710936,15.234374,8.203125
2019-02-14T08:58:01.3300000,0.009277,-0.005859,0.995117,54.605895,-0.732422,0.244141,0.122070,28.710936,15.234374,8.203125
2019-02-14T08:58:01.3400000,0.010742,-0.004395,1.000000,54.626861,-0.732422,0.183105,0.122070,28.710936,15.234374,8.203125
2019-02-14T08:58:01.3500000,0.013184,-0.003418,0.998535,54.620871,-0.732422,0.244141,0.122070,28.710936,15.234374,8.203125
2019-02-14T08:58:01.3600000,0.013672,-0.002930,0.994629,54.611885,-0.610352,0.244141,0.183105,28.710936,15.234374,8.203125
2019-02-14T08:58:01.3700000,0.014160,-0.000977,0.995117,54.608890,-0.671387,0.183105,0.122070,28.710936,15.234374,8.203125
2019-02-14T08:58:01.3800000,0.015137,-0.003418,0.994141,54.614881,-0.732422,0.244141,0.061035,28.710936,15.234374,8.203125
2019-02-14T08:58:01.3900000,0.016602,-0.003418,0.993164,54.623866,-0.732422,0.244141,0.061035,28.710936,15.234374,8.203125
2019-02-14T08:58:01.4000000,0.013184,-0.001465,0.996094,54.605895,-0.732422,0.244141,0.122070,28.710936,15.234374,8.203125
2019-02-14T08:58:01.4100000,0.014160,-0.003906,0.995117,54.614881,-0.732422,0.305176,0.122070,28.710936,15.234374,8.203125
2019-02-14T08:58:01.4200000,0.011719,-0.001953,0.996582,54.596909,-0.732422,0.305176,0.122070,28.710936,15.234374,8.203125
2019-02-14T08:58:01.4300000,0.013184,-0.002441,0.993652,54.599905,-0.732422,0.305176,0.061035,28.710936,14.355468,9.375000
2019-02-14T08:58:01.4400000,0.011230,-0.005371,0.995605,54.605895,-0.671387,0.305176,0.122070,28.710936,14.355468,9.375000
2019-02-14T08:58:01.4500000,0.010254,-0.004395,0.997070,54.584929,-0.732422,0.244141,0.122070,28.710936,14.355468,9.375000
2019-02-14T08:58:01.4600000,0.012207,-0.006836,0.995605,54.605895,-0.732422,0.305176,0.122070,28.710936,14.355468,9.375000
2019-02-14T08:58:01.4700000,0.012207,-0.006348,0.996582,54.605895,-0.732422,0.305176,0.122070,28.710936,14.355468,9.375000
2019-02-14T08:58:01.4800000,0.009277,-0.005371,0.996094,54.602900,-0.793457,0.305176,0.122070,28.710936,14.355468,9.375000
2019-02-14T08:58:01.4900000,0.012207,-0.005859,0.994141,54.584929,-0.854492,0.305176,0.061035,28.710936,14.355468,9.375000
2019-02-14T08:58:01.5000000,0.011719,-0.004883,0.993652,54.593914,-0.732422,0.244141,0.122070,28.710936,14.355468,9.375000
2019-02-14T08:58:01.5100000,0.011719,-0.005371,0.993164,54.605895,-0.854492,0.244141,0.061035,28.710936,14.355468,9.375000
2019-02-14T08:58:01.5200000,0.011719,-0.005371,0.993652,54.626861,-0.732422,0.244141,0.061035,28.710936,14.355468,9.375000
2019-02-14T08:58:01.5300000,0.015137,-0.004395,0.993164,54.605895,-0.732422,0.244141,0.122070,28.710936,14.355468,9.375000
2019-02-14T08:58:01.5400000,0.014648,-0.004395,0.996094,54.593914,-0.732422,0.305176,0.061035,28.710936,14.355468,9.375000
2019-02-14T08:58:01.5500000,0.012695,-0.005371,0.997070,54.575943,-0.793457,0.244141,0.122070,30.468749,14.648437,7.617187
2019-02-14T08:58:01.5600000,0.011230,-0.002930,0.994629,54.578938,-0.732422,0.305176,0.061035,30.468749,14.648437,7.617187
2019-02-14T08:58:01.5700000,0.014160,0.000000,0.996582,54.584929,-0.732422,0.244141,0.183105,30.468749,14.648437,7.617187
2019-02-14T08:58:01.5800000,0.011230,0.000000,0.993652,54.587924,-0.732422,0.244141,0.000000,30.468749,14.648437,7.617187
2019-02-14T08:58:01.5900000,0.012695,-0.002441,0.993652,54.575943,-0.732422,0.305176,0.122070,30.468749,14.648437,7.617187
2019-02-14T08:58:01.6000000,0.012207,-0.001953,0.991699,54.566958,-0.854492,0.366211,0.122070,30.468749,14.648437,7.617187
2019-02-14T08:58:01.6100000,0.010254,-0.001953,0.993164,54.584929,-0.732422,0.305176,0.061035,30.468749,14.648437,7.617187
2019-02-14T08:58:01.6200000,0.009277,-0.004883,0.996094,54.566958,-0.732422,0.305176,0.061035,30.468749,14.648437,7.617187
2019-02-14T08:58:01.6300000,0.009277,-0.004883,0.993652,54.569953,-0.671387,0.183105,0.183105,30.468749,14.648437,7.617187
2019-02-14T08:58:01.6400000,0.013184,-0.004883,0.997559,54.563963,-0.793457,0.244141,0.122070,30.468749,14.648437,7.617187
2019-02-14T08:58:01.6500000,0.013672,-0.004395,0.996582,54.569953,-0.732422,0.183105,0.122070,30.468749,14.648437,7.617187
2019-02-14T08:58:01.6600000,0.011230,-0.006348,0.997559,54.563963,-0.732422,0.244141,0.061035,30.468749,14.648437,7.617187
2019-02-14T08:58:01.6700000,0.014160,-0.005371,0.994629,54.560967,-0.732422,0.244141,0.000000,28.564452,15.673827,8.349609
2019-02-14T08:58:01.6800000,0.015137,-0.006836,0.994629,54.551982,-0.732422,0.244141,0.061035,28.564452,15.673827,8.349609
2019-02-14T08:58:01.6900000,0.015137,-0.003906,0.994141,54.557972,-0.793457,0.366211,0.122070,28.564452,15.673827,8.349609
2019-02-14T08:58:01.7000000,0.014160,-0.006348,0.992188,54.563963,-0.793457,0.305176,0.122070,28.564452,15.673827,8.349609
2019-02-14T08:58:01.7100000,0.015137,-0.004395,0.994629,54.554977,-0.732422,0.305176,0.122070,28.564452,15.673827,8.349609
2019-02-14T08:58:01.7200000,0.011719,-0.003906,0.996582,54.557972,-0.732422,0.366211,0.122070,28.564452,15.673827,8.349609
2019-02-14T08:58:01.7300000,0.008789,-0.003418,0.994141,54.548987,-0.671387,0.366211,0.183105,28.564452,15.673827,8.349609
2019-02-14T08:58:01.7400000,0.011230,-0.002930,0.996582,54.551982,-0.732422,0.305176,0.122070,28.564452,15.673827,8.349609
2019-02-14T08:58:01.7500000,0.009766,-0.000977,0.995117,54.563963,-0.732422,0.305176,0.122070,28.564452,15.673827,8.349609
2019-02-14T08:58:01.7600000,0.009277,-0.000488,0.994629,54.551982,-0.732422,0.244141,0.122070,28.564452,15.673827,8.349609
2019-02-14T08:58:01.7700000,0.010254,0.000000,0.995117,54.566958,-0.671387,0.244141,0.122070,28.564452,15.673827,8.349609
2019-02-14T08:58:01.7800000,0.010254,0.001953,0.993164,54.581934,-0.793457,0.183105,0.000000,28.564452,15.673827,8.349609
2019-02-14T08:58:01.7900000,0.011230,-0.001465,0.997559,54.534011,-0.793457,0.305176,0.061035,27.246092,15.234374,7.617187
2019-02-14T08:58:01.8000000,0.014160,-0.003418,0.993652,54.528020,-0.793457,0.244141,0.122070,27.246092,15.234374,7.617187
2019-02-14T08:58:01.8100000,0.012207,-0.003418,0.992676,54.542996,-0.793457,0.183105,0.061035,27.246092,15.234374,7.617187
2019-02-14T08:58:01.8200000,0.013672,-0.005859,0.995117,54.569953,-0.793457,0.183105,0.061035,27.246092,15.234374,7.617187
2019-02-14T08:58:01.8300000,0.014648,-0.006836,0.997070,54.551982,-0.732422,0.244141,0.122070,27.246092,15.234374,7.617187
2019-02-14T08:58:01.8400000,0.016113,-0.006348,0.998535,54.545991,-0.793457,0.183105,0.183105,27.246092,15.234374,7.617187
2019-02-14T08:58:01.8500000,0.013672,-0.005859,0.995117,54.560967,-0.793457,0.244141,0.061035,27.246092,15.234374,7.617187
2019-02-14T08:58:01.8600000,0.012695,-0.006348,0.998047,54.545991,-0.793457,0.305176,0.122070,27.246092,15.234374,7.617187
2019-02-14T08:58:01.8700000,0.011719,-0.006348,0.994629,54.534011,-0.732422,0.305176,0.122070,27.246092,15.234374,7.617187
2019-02-14T08:58:01.8800000,0.012695,-0.004883,0.994141,54.534011,-0.732422,0.366211,0.122070,27.246092,15.234374,7.617187
2019-02-14T08:58:01.8900000,0.012207,-0.004395,0.997070,54.540001,-0.671387,0.305176,0.122070,27.246092,15.234374,7.617187
2019-02-14T08:58:01.9000000,0.011230,-0.004395,0.997070,54.528020,-0.732422,0.366211,0.122070,27.246092,15.234374,7.617187
2019-02-14T08:58:01.9100000,0.012695,-0.003906,0.994141,54.545991,-0.732422,0.244141,0.183105,27.246092,15.234374,7.617187
2019-02-14T08:58:01.9200000,0.010254,-0.003418,1.000000,54.557972,-0.732422,0.305176,0.122070,29.443358,15.673827,8.349609
2019-02-14T08:58:01.9300000,0.010254,-0.003418,1.000000,54.551982,-0.793457,0.183105,0.000000,29.443358,15.673827,8.349609
2019-02-14T08:58:01.9400000,0.010254,-0.002930,0.998535,54.534011,-0.793457,0.183105,0.061035,29.443358,15.673827,8.349609
2019-02-14T08:58:01.9500000,0.013672,0.000000,0.992676,54.528020,-0.732422,0.244141,0.061035,29.443358,15.673827,8.349609
2019-02-14T08:58:01.9600000,0.013184,0.000488,0.996094,54.551982,-0.793457,0.244141,0.061035,29.443358,15.673827,8.349609
2019-02-14T08:58:01.9700000,0.014160,-0.000977,0.993164,54.540001,-0.854492,0.244141,0.122070,29.443358,15.673827,8.349609
2019-02-14T08:58:01.9800000,0.013672,-0.001465,0.994629,54.548987,-0.732422,0.183105,0.122070,29.443358,15.673827,8.349609
2019-02-14T08:58:01.9900000,0.014160,-0.001953,0.997070,54.548987,-0.732422,0.305176,0.061035,29.443358,15.673827,8.349609
2019-02-14T08:58:02.0000000,0.015625,-0.003418,0.997070,54.528020,-0.793457,0.244141,0.061035,29.443358,15.673827,8.349609
2019-02-14T08:58:02.0100000,0.012207,-0.004395,0.997559,54.545991,-0.671387,0.305176,0.122070,29.443358,15.673827,8.349609
2019-02-14T08:58:02.0200000,0.012207,-0.003906,0.995117,54.537006,-0.732422,0.366211,0.061035,29.443358,15.673827,8.349609
2019-02-14T08:58:02.0300000,0.011719,-0.003418,0.996582,54.522030,-0.793457,0.366211,0.061035,29.443358,15.673827,8.349609
2019-02-14T08:58:02.0400000,0.009766,-0.004395,0.996582,54.519035,-0.732422,0.305176,0.122070,27.978514,13.916015,7.763671
2019-02-14T08:58:02.0500000,0.009277,-0.006348,0.996582,54.531016,-0.793457,0.244141,0.061035,27.978514,13.916015,7.763671
2019-02-14T08:58:02.0600000,0.009766,-0.006348,0.996582,54.540001,-0.793457,0.244141,0.122070,27.978514,13.916015,7.763671
2019-02-14T08:58:02.0700000,0.010254,-0.006836,0.994629,54.528020,-0.732422,0.244141,0.122070,27.978514,13.916015,7.763671
2019-02-14T08:58:02.0800000,0.009766,-0.005371,0.996094,54.516040,-0.671387,0.183105,0.183105,27.978514,13.916015,7.763671
2019-02-14T08:58:02.0900000,0.011230,-0.003418,0.994141,54.528020,-0.671387,0.122070,0.122070,27.978514,13.916015,7.763671
2019-02-14T08:58:02.1000000,0.012695,-0.005859,0.989746,54.516040,-0.732422,0.061035,0.183105,27.978514,13.916015,7.763671
2019-02-14T08:58:02.1100000,0.012207,-0.006348,0.995117,54.516040,-0.793457,0.122070,0.183105,27.978514,13.916015,7.763671
2019-02-14T08:58:02.1200000,0.013184,-0.002441,1.000488,54.501064,-0.732422,0.244141,0.244141,27.978514,13.916015,7.763671
2019-02-14T08:58:02.1300000,0.013184,-0.000488,0.993164,54.531016,-0.732422,0.244141,0.061035,27.978514,13.916015,7.763671
2019-02-14T08:58:02.1400000,0.013184,-0.003418,0.993652,54.531016,-0.732422,0.244141,0.061035,27.978514,13.916015,7.763671
2019-02-14T08:58:02.1500000,0.013184,-0.004395,0.999023,54.501064,-0.793457,0.244141,0.122070,27.978514,13.916015,7.763671
2019-02-14T08:58:02.1600000,0.015137,-0.003418,0.997559,54.498069,-0.732422,0.366211,0.183105,28.710936,14.355468,9.082031
2019-02-14T08:58:02.1700000,0.013184,-0.002930,0.995117,54.507054,-0.732422,0.427246,0.122070,28.710936,14.355468,9.082031
2019-02-14T08:58:02.1800000,0.010742,-0.000488,0.995605,54.513045,-0.732422,0.366211,0.061035,28.710936,14.355468,9.082031
2019-02-14T08:58:02.1900000,0.010254,-0.001953,0.998535,54.504059,-0.793457,0.305176,0.122070,28.710936,14.355468,9.082031
2019-02-14T08:58:02.2000000,0.010254,-0.003906,0.996582,54.498069,-0.793457,0.305176,0.122070,28.710936,14.355468,9.082031
2019-02-14T08:58:02.2100000,0.009766,-0.002441,0.991211,54.486088,-0.732422,0.366211,0.122070,28.710936,14.355468,9.082031
2019-02-14T08:58:02.2200000,0.010742,-0.003906,0.996582,54.486088,-0.793457,0.244141,0.122070,28.710936,14.355468,9.082031
2019-02-14T08:58:02.2300000,0.012695,-0.004883,0.995117,54.498069,-0.793457,0.244141,0.000000,28.710936,14.355468,9.082031
2019-02-14T08:58:02.2400000,0.012695,-0.005371,0.995117,54.510049,-0.793457,0.244141,0.061035,28.710936,14.355468,9.082031
2019-02-14T08:58:02.2500000,0.013184,-0.003906,0.988281,54.504059,-0.793457,0.183105,0.122070,28.710936,14.355468,9.082031
2019-02-14T08:58:02.2600000,0.015625,-0.005859,0.990723,54.504059,-0.793457,0.183105,0.183105,28.710936,14.355468,9.082031
2019-02-14T08:58:02.2700000,0.012695,-0.005371,0.994141,54.495073,-0.793457,0.183105,0.061035,28.710936,14.355468,9.082031
2019-02-14T08:58:02.2800000,0.014160,-0.003906,0.993164,54.510049,-0.732422,0.183105,0.183105,27.685546,14.501952,7.763671
2019-02-14T08:58:02.2900000,0.013184,-0.004395,0.991699,54.501064,-0.732422,0.244141,0.122070,27.685546,14.501952,7.763671
2019-02-14T08:58:02.3000000,0.014160,-0.003906,0.998047,54.492078,-0.732422,0.366211,0.061035,27.685546,14.501952,7.763671
2019-02-14T08:58:02.3100000,0.012207,-0.004883,0.990234,54.489083,-0.671387,0.366211,0.122070,27.685546,14.501952,7.763671
2019-02-14T08:58:02.3200000,0.012207,-0.003906,0.991211,54.498069,-0.732422,0.305176,0.122070,27.685546,14.501952,7.763671
2019-02-14T08:58:02.3300000,0.012207,-0.002930,0.994141,54.519035,-0.854492,0.244141,0.000000,27.685546,14.501952,7.763671
2019-02-14T08:58:02.3400000,0.010742,-0.003418,0.995605,54.495073,-0.793457,0.305176,0.061035,27.685546,14.501952,7.763671
2019-02-14T08:58:02.3500000,0.009277,-0.002441,0.993652,54.474107,-0.793457,0.366211,0.061035,27.685546,14.501952,7.763671
2019-02-14T08:58:02.3600000,0.011230,-0.002441,1.000000,54.486088,-0.793457,0.305176,0.061035,27.685546,14.501952,7.763671
2019-02-14T08:58:02.3700000,0.012695,-0.000488,0.994629,54.477102,-0.793457,0.183105,0.122070,27.685546,14.501952,7.763671
2019-02-14T08:58:02.3800000,0.012695,-0.002930,0.991699,54.465122,-0.732422,0.183105,0.122070,27.685546,14.501952,7.763671
2019-02-14T08:58:02.3900000,0.013672,-0.002441,0.995117,54.486088,-0.793457,0.305176,0.183105,27.685546,14.501952,7.763671
2019-02-14T08:58:02.4000000,0.013184,-0.003418,0.991211,54.495073,-0.915527,0.305176,0.122070,27.685546,14.501952,7.763671
2019-02-14T08:58:02.4100000,0.016113,-0.002441,0.995605,54.468117,-0.854492,0.244141,0.061035,28.857420,14.794921,8.642578
2019-02-14T08:58:02.4200000,0.012695,-0.003418,0.996582,54.483093,-0.732422,0.244141,0.183105,28.857420,14.794921,8.642578
2019-02-14T08:58:02.4300000,0.015625,-0.006348,0.994629,54.468117,-0.793457,0.183105,0.122070,28.857420,14.794921,8.642578
2019-02-14T08:58:02.4400000,0.015625,-0.005859,0.998535,54.477102,-0.732422,0.305176,0.061035,28.857420,14.794921,8.642578
2019-02-14T08:58:02.4500000,0.014648,-0.004883,0.998047,54.474107,-0.793457,0.366211,0.061035,28.857420,14.794921,8.642578
2019-02-14T08:58:02.4600000,0.012695,-0.003906,0.996582,54.474107,-0.732422,0.244141,0.122070,28.857420,14.794921,8.642578
2019-02-14T08:58:02.4700000,0.013672,-0.003418,0.995117,54.474107,-0.671387,0.244141,0.122070,28.857420,14.794921,8.642578
2019-02-14T08:58:02.4800000,0.011230,-0.003418,0.991211,54.480098,-0.732422,0.305176,0.061035,28.857420,14.794921,8.642578
2019-02-14T08:58:02.4900000,0.010254,-0.002930,0.989746,54.462126,-0.793457,0.244141,0.061035,28.857420,14.794921,8.642578
2019-02-14T08:58:02.5000000,0.011230,-0.002930,0.990234,54.468117,-0.732422,0.366211,0.061035,28.857420,14.794921,8.642578
2019-02-14T08:58:02.5100000,0.011230,-0.003906,0.995605,54.447151,-0.732422,0.366211,0.122070,28.857420,14.794921,8.642578
2019-02-14T08:58:02.5200000,0.010742,-0.001953,0.996094,54.453141,-0.854492,0.183105,0.061035,28.857420,14.794921,8.642578
2019-02-14T08:58:02.5300000,0.013184,-0.002930,0.994141,54.456136,-0.732422,0.305176,0.061035,28.857420,15.087890,8.642578
2019-02-14T08:58:02.5400000,0.011719,-0.001465,0.997559,54.471112,-0.732422,0.244141,0.061035,28.857420,15.087890,8.642578
2019-02-14T08:58:02.5500000,0.014160,-0.004395,0.993164,54.462126,-0.732422,0.305176,0.122070,28.857420,15.087890,8.642578
2019-02-14T08:58:02.5600000,0.015137,-0.004395,0.998047,54.447151,-0.854492,0.305176,0.183105,28.857420,15.087890,8.642578
2019-02-14T08:58:02.5700000,0.017578,-0.006348,1.000488,54.444155,-0.793457,0.305176,0.122070,28.857420,15.087890,8.642578
2019-02-14T08:58:02.5800000,0.017578,-0.007324,0.995605,54.447151,-0.854492,0.366211,0.000000,28.857420,15.087890,8.642578
2019-02-14T08:58:02.5900000,0.018555,-0.006348,0.993652,54.459131,-0.854492,0.366211,0.061035,28.857420,15.087890,8.642578
2019-02-14T08:58:02.6000000,0.017090,-0.005859,0.994629,54.432175,-0.854492,0.427246,0.061035,28.857420,15.087890,8.642578
2019-02-14T08:58:02.6100000,0.010254,-0.003906,0.992188,54.447151,-0.732422,0.549316,0.061035,28.857420,15.087890,8.642578
2019-02-14T08:58:02.6200000,0.010254,-0.000488,0.995117,54.450146,-0.793457,0.549316,0.122070,28.857420,15.087890,8.642578
2019-02-14T08:58:02.6300000,0.008789,-0.001953,0.994141,54.447151,-0.793457,0.488281,0.061035,28.857420,15.087890,8.642578
2019-02-14T08:58:02.6400000,0.005859,-0.003418,0.993652,54.423189,-0.793457,0.366211,0.061035,28.857420,15.087890,8.642578
2019-02-14T08:58:02.6500000,0.008301,-0.004883,0.997070,54.423189,-0.732422,0.305176,0.061035,27.832030,14.648437,8.789062
2019-02-14T08:58:02.6600000,0.008301,-0.003906,0.994629,54.435170,-0.854492,0.244141,0.122070,27.832030,14.648437,8.789062
2019-02-14T08:58:02.6700000,0.012695,-0.002441,0.992676,54.432175,-0.793457,0.305176,0.122070,27.832030,14.648437,8.789062
2019-02-14T08:58:02.6800000,0.012695,-0.002441,0.998047,54.432175,-0.732422,0.305176,0.061035,27.832030,14.648437,8.789062
2019-02-14T08:58:02.6900000,0.010254,-0.002930,0.999023,54.435170,-0.854492,0.244141,0.122070,27.832030,14.648437,8.789062
2019-02-14T08:58:02.7000000,0.015625,-0.002930,1.000000,54.414204,-0.915527,0.244141,0.122070,27.832030,14.648437,8.789062
2019-02-14T08:58:02.7100000,0.017090,-0.003418,0.992188,54.426184,-0.793457,0.366211,0.122070,27.832030,14.648437,8.789062
2019-02-14T08:58:02.7200000,0.011230,-0.004395,0.995605,54.429180,-0.671387,0.366211,0.000000,27.832030,14.648437,8.789062
2019-02-14T08:58:02.7300000,0.013184,-0.004395,0.996094,54.414204,-0.732422,0.305176,0.061035,27.832030,14.648437,8.789062
2019-02-14T08:58:02.7400000,0.014160,-0.006348,0.993652,54.432175,-0.732422,0.305176,0.183105,27.832030,14.648437,8.789062
2019-02-14T08:58:02.7500000,0.009277,-0.006836,0.997070,54.426184,-0.793457,0.305176,0.061035,27.832030,14.648437,8.789062
2019-02-14T08:58:02.7600000,0.011719,-0.007813,0.992676,54.420194,-0.732422,0.244141,0.061035,27.832030,14.648437,8.789062
2019-02-14T08:58:02.7700000,0.009766,-0.004395,0.993652,54.399228,-0.793457,0.305176,0.000000,29.736327,13.916015,7.470703
2019-02-14T08:58:02.7800000,0.008301,-0.003418,0.994141,54.393237,-0.732422,0.305176,0.122070,29.736327,13.916015,7.470703
2019-02-14T08:58:02.7900000,0.006836,-0.004395,0.995605,54.411208,-0.793457,0.305176,0.183105,29.736327,13.916015,7.470703
2019-02-14T08:58:02.8000000,0.008301,-0.002930,0.996582,54.402223,-0.854492,0.244141,0.061035,29.736327,13.916015,7.470703
2019-02-14T08:58:02.8100000,0.010254,-0.004395,0.996094,54.411208,-0.732422,0.122070,0.061035,29.736327,13.916015,7.470703
2019-02-14T08:58:02.8200000,0.015625,-0.005371,0.997070,54.414204,-0.732422,0.061035,0.122070,29.736327,13.916015,7.470703
2019-02-14T08:58:02.8300000,0.013672,-0.005371,0.995117,54.429180,-0.732422,0.122070,0.061035,29.736327,13.916015,7.470703
2019-02-14T08:58:02.8400000,0.013184,-0.005371,0.997559,54.411208,-0.793457,0.183105,0.122070,29.736327,13.916015,7.470703
2019-02-14T08:58:02.8500000,0.015625,-0.002930,0.995605,54.408213,-0.793457,0.244141,0.122070,29.736327,13.916015,7.470703
2019-02-14T08:58:02.8600000,0.016602,-0.003418,0.993652,54.405218,-0.793457,0.244141,0.000000,29.736327,13.916015,7.470703
2019-02-14T08:58:02.8700000,0.014648,-0.001465,0.994141,54.408213,-0.732422,0.244141,0.122070,29.736327,13.916015,7.470703
2019-02-14T08:58:02.8800000,0.018066,-0.000488,0.995117,54.396233,-0.793457,0.427246,0.122070,29.736327,13.916015,7.470703
2019-02-14T08:58:02.8900000,0.012695,-0.001953,0.993164,54.381257,-0.793457,0.305176,0.061035,29.736327,13.916015,7.470703
2019-02-14T08:58:02.9000000,0.010742,-0.002930,0.999023,54.375266,-0.793457,0.305176,0.061035,28.417967,14.941406,8.496093
2019-02-14T08:58:02.9100000,0.011719,-0.004883,0.993164,54.393237,-0.793457,0.366211,0.122070,28.417967,14.941406,8.496093
2019-02-14T08:58:02.9200000,0.009277,-0.002441,0.996094,54.369276,-0.732422,0.305176,0.122070,28.417967,14.941406,8.496093
2019-02-14T08:58:02.9300000,0.008789,-0.003418,0.995117,54.387247,-0.793457,0.366211,0.061035,28.417967,14.941406,8.496093
2019-02-14T08:58:02.9400000,0.009277,-0.004395,0.992188,54.393237,-0.854492,0.244141,-0.061035,28.417967,14.941406,8.496093
2019-02-14T08:58:02.9500000,0.007813,-0.001953,0.998047,54.390242,-0.854492,0.244141,0.061035,28.417967,14.941406,8.496093
2019-02-14T08:58:02.9600000,0.010742,-0.004395,0.994629,54.393237,-0.854492,0.061035,0.183105,28.417967,14.941406,8.496093
2019-02-14T08:58:02.9700000,0.012207,-0.005859,0.996094,54.390242,-0.793457,0.183105,0.122070,28.417967,14.941406,8.496093
2019-02-14T08:58:02.9800000,0.014160,-0.005371,0.992676,54.381257,-0.732422,0.183105,0.122070,28.417967,14.941406,8.496093
2019-02-14T08:58:02.9900000,0.016113,-0.005371,0.995605,54.390242,-0.732422,0.183105,0.061035,28.417967,14.941406,8.496093
2019-02-14T08:58:03.0000000,0.017090,-0.006348,0.994629,54.387247,-0.732422,0.183105,0.122070,28.417967,14.941406,8.496093
2019-02-14T08:58:03.0100000,0.013672,-0.006836,0.994629,54.381257,-0.671387,0.183105,0.061035,28.417967,14.941406,8.496093
2019-02-14T08:58:03.0200000,0.013672,-0.005859,0.997559,54.378261,-0.732422,0.305176,0.000000,25.927733,10.400390,7.177734
2019-02-14T08:58:03.0300000,0.011230,-0.003418,0.992676,54.390242,-0.854492,0.366211,0.061035,25.927733,10.400390,7.177734
2019-02-14T08:58:03.0400000,0.011230,-0.005371,0.993652,54.375266,-0.793457,0.366211,0.122070,25.927733,10.400390,7.177734
2019-02-14T08:58:03.0500000,0.008789,-0.001953,0.990234,54.381257,-0.793457,0.427246,0.122070,25.927733,10.400390,7.177734
2019-02-14T08:58:03.0600000,0.012207,-0.001953,0.994629,54.408213,-0.732422,0.427246,0.122070,25.927733,10.400390,7.177734
2019-02-14T08:58:03.0700000,0.012207,-0.003418,0.994629,54.390242,-0.732422,0.366211,0.122070,25.927733,10.400390,7.177734
2019-02-14T08:58:03.0800000,0.010742,-0.002930,0.988770,54.366281,-0.793457,0.183105,0.122070,25.927733,10.400390,7.177734
2019-02-14T08:58:03.0900000,0.009277,-0.000488,0.994629,54.366281,-0.732422,0.183105,0.061035,25.927733,10.400390,7.177734
2019-02-14T08:58:03.1000000,0.009766,-0.004883,0.994141,54.384252,-0.793457,0.183105,0.122070,25.927733,10.400390,7.177734
2019-02-14T08:58:03.1100000,0.009277,-0.002930,0.997559,54.381257,-0.793457,0.183105,0.122070,25.927733,10.400390,7.177734
2019-02-14T08:58:03.1200000,0.012695,-0.004395,0.997559,54.366281,-0.732422,0.244141,0.061035,25.927733,10.400390,7.177734
2019-02-14T08:58:03.1300000,0.013184,-0.002930,0.995605,54.351305,-0.793457,0.244141,0.061035,25.927733,10.400390,7.177734
2019-02-14T08:58:03.1400000,0.014648,-0.004395,0.997070,54.363286,-0.854492,0.183105,0.000000,28.271483,14.208984,8.349609
2019-02-14T08:58:03.1500000,0.014160,-0.004883,1.000977,54.363286,-0.793457,0.244141,0.122070,28.271483,14.208984,8.349609
2019-02-14T08:58:03.1600000,0.015137,-0.005371,0.995117,54.387247,-0.793457,0.366211,0.122070,28.271483,14.208984,8.349609
2019-02-14T08:58:03.1700000,0.015137,-0.005859,0.992676,54.381257,-0.732422,0.366211,0.122070,28.271483,14.208984,8.349609
2019-02-14T08:58:03.1800000,0.013184,-0.005371,0.996094,54.363286,-0.793457,0.366211,0.122070,28.271483,14.208984,8.349609
2019-02-14T08:58:03.1900000,0.011719,-0.003418,0.996094,54.366281,-0.793457,0.366211,0.122070,28.271483,14.208984,8.349609
2019-02-14T08:58:03.2000000,0.009766,-0.003906,0.988281,54.345315,-0.793457,0.366211,0.122070,28.271483,14.208984,8.349609
2019-02-14T08:58:03.2100000,0.010254,-0.003906,0.993164,54.354300,-0.793457,0.305176,0.061035,28.271483,14.208984,8.349609
2019-02-14T08:58:03.2200000,0.010254,-0.003906,0.997070,54.354300,-0.793457,0.183105,0.122070,28.271483,14.208984,8.349609
2019-02-14T08:58:03.2300000,0.009766,-0.002930,0.994629,54.360290,-0.793457,0.183105,0.122070,28.271483,14.208984,8.349609
2019-02-14T08:58:03.2400000,0.009766,-0.004395,0.991699,54.375266,-0.732422,0.183105,0.122070,28.271483,14.208984,8.349609
2019-02-14T08:58:03.2500000,0.010742,-0.003906,0.994629,54.354300,-0.732422,0.244141,0.061035,28.271483,14.208984,8.349609
2019-02-14T08:58:03.2600000,0.010742,-0.002930,0.994629,54.363286,-0.732422,0.305176,0.000000,28.271483,14.208984,8.349609
2019-02-14T08:58:03.2700000,0.013672,-0.003906,0.995117,54.354300,-0.732422,0.244141,0.061035,29.003905,15.234374,8.496093
2019-02-14T08:58:03.2800000,0.014648,-0.002930,0.995117,54.366281,-0.732422,0.244141,0.061035,29.003905,15.234374,8.496093
2019-02-14T08:58:03.2900000,0.014648,-0.002930,1.000000,54.366281,-0.732422,0.244141,0.122070,29.003905,15.234374,8.496093
2019-02-14T08:58:03.3000000,0.018066,-0.002441,0.998047,54.366281,-0.793457,0.183105,0.122070,29.003905,15.234374,8.496093
2019-02-14T08:58:03.3100000,0.014160,-0.003906,0.995605,54.354300,-0.854492,0.122070,0.122070,29.003905,15.234374,8.496093
2019-02-14T08:58:03.3200000,0.013184,-0.002930,0.994141,54.345315,-0.732422,0.366211,0.061035,29.003905,15.234374,8.496093
2019-02-14T08:58:03.3300000,0.011719,-0.003906,0.993652,54.354300,-0.793457,0.427246,0.122070,29.003905,15.234374,8.496093
2019-02-14T08:58:03.3400000,0.011719,-0.004883,0.994629,54.333334,-0.732422,0.305176,0.122070,29.003905,15.234374,8.496093
2019-02-14T08:58:03.3500000,0.009277,-0.005859,0.994629,54.336329,-0.854492,0.244141,0.061035,29.003905,15.234374,8.496093
2019-02-14T08:58:03.3600000,0.009277,-0.003418,0.994629,54.336329,-0.854492,0.305176,0.183105,29.003905,15.234374,8.496093
2019-02-14T08:58:03.3700000,0.011230,-0.005859,0.992676,54.312368,-0.793457,0.244141,0.122070,29.003905,15.234374,8.496093
2019-02-14T08:58:03.3800000,0.009277,-0.003906,0.997559,54.327343,-0.793457,0.305176,0.000000,29.003905,15.234374,8.496093
2019-02-14T08:58:03.3900000,0.011230,-0.005859,0.997070,54.333334,-0.732422,0.305176,0.061035,27.392577,13.623046,8.349609
2019-02-14T08:58:03.4000000,0.011230,-0.003906,0.992188,54.330339,-0.732422,0.122070,0.122070,27.392577,13.623046,8.349609
2019-02-14T08:58:03.4100000,0.012207,-0.006348,0.995117,54.342319,-0.793457,0.183105,0.122070,27.392577,13.623046,8.349609
2019-02-14T08:58:03.4200000,0.013184,-0.005859,0.995117,54.306377,-0.793457,0.244141,0.061035,27.392577,13.623046,8.349609
2019-02-14T08:58:03.4300000,0.013672,-0.004883,0.992676,54.330339,-0.732422,0.183105,0.183105,27.392577,13.623046,8.349609
2019-02-14T08:58:03.4400000,0.013184,-0.002930,0.993652,54.333334,-0.793457,0.183105,0.183105,27.392577,13.623046,8.349609
2019-02-14T08:58:03.4500000,0.015137,-0.003906,0.996094,54.336329,-0.732422,0.244141,0.122070,27.392577,13.623046,8.349609
2019-02-14T08:58:03.4600000,0.015625,-0.001953,0.996582,54.327343,-0.793457,0.305176,0.061035,27.392577,13.623046,8.349609
2019-02-14T08:58:03.4700000,0.015625,-0.000977,0.991699,54.324348,-0.793457,0.244141,0.122070,27.392577,13.623046,8.349609
2019-02-14T08:58:03.4800000,0.014648,-0.004883,0.995117,54.327343,-0.732422,0.366211,0.061035,27.392577,13.623046,8.349609
2019-02-14T08:58:03.4900000,0.010254,-0.001953,0.997070,54.321353,-0.793457,0.366211,0.122070,27.392577,13.623046,8.349609
2019-02-14T08:58:03.5000000,0.008789,-0.004395,0.996582,54.309372,-0.854492,0.305176,0.183105,27.392577,13.623046,8.349609
2019-02-14T08:58:03.5100000,0.008789,-0.003418,0.997559,54.297392,-0.732422,0.305176,0.183105,27.978514,14.794921,8.642578
2019-02-14T08:58:03.5200000,0.010254,-0.000977,0.997559,54.306377,-0.793457,0.183105,0.061035,27.978514,14.794921,8.642578
2019-02-14T08:58:03.5300000,0.009766,-0.002930,0.997070,54.312368,-0.671387,0.183105,0.061035,27.978514,14.794921,8.642578
2019-02-14T08:58:03.5400000,0.009766,-0.004395,0.992676,54.315363,-0.671387,0.305176,0.122070,27.978514,14.794921,8.642578
2019-02-14T08:58:03.5500000,0.010742,-0.001953,0.992188,54.294397,-0.793457,0.244141,0.122070,27.978514,14.794921,8.642578
2019-02-14T08:58:03.5600000,0.012207,-0.003418,0.997559,54.306377,-0.732422,0.122070,0.061035,27.978514,14.794921,8.642578
2019-02-14T08:58:03.5700000,0.012207,-0.004395,0.992188,54.303382,-0.732422,0.122070,0.183105,27.978514,14.794921,8.642578
2019-02-14T08:58:03.5800000,0.012695,-0.004883,0.995117,54.309372,-0.732422,0.183105,0.122070,27.978514,14.794921,8.642578
2019-02-14T08:58:03.5900000,0.015625,-0.007324,0.993164,54.306377,-0.854492,0.244141,0.183105,27.978514,14.794921,8.642578
2019-02-14T08:58:03.6000000,0.014648,-0.003906,0.992676,54.294397,-0.793457,0.183105,0.122070,27.978514,14.794921,8.642578
2019-02-14T08:58:03.6100000,0.014160,-0.005371,0.996582,54.306377,-0.793457,0.305176,0.061035,27.978514,14.794921,8.642578
2019-02-14T08:58:03.6200000,0.013184,-0.005371,0.995117,54.285411,-0.793457,0.427246,0.183105,27.978514,14.794921,8.642578
2019-02-14T08:58:03.6300000,0.012207,-0.002930,0.998047,54.279421,-0.732422,0.305176,0.122070,29.443358,14.794921,7.763671
2019-02-14T08:58:03.6400000,0.010254,-0.002441,0.995117,54.285411,-0.854492,0.305176,0.061035,29.443358,14.794921,7.763671
2019-02-14T08:58:03.6500000,0.009766,-0.001465,0.996094,54.288406,-0.732422,0.244141,0.061035,29.443358,14.794921,7.763671
2019-02-14T08:58:03.6600000,0.012207,-0.000977,0.995117,54.279421,-0.793457,0.305176,0.122070,29.443358,14.794921,7.763671
2019-02-14T08:58:03.6700000,0.009277,-0.000488,0.993652,54.291401,-0.732422,0.244141,0.061035,29.443358,14.794921,7.763671
2019-02-14T08:58:03.6800000,0.010742,-0.002441,0.997070,54.285411,-0.732422,0.305176,0.061035,29.443358,14.794921,7.763671
2019-02-14T08:58:03.6900000,0.013672,-0.003418,0.996582,54.282416,-0.793457,0.305176,-0.061035,29.443358,14.794921,7.763671
2019-02-14T08:58:03.7000000,0.012207,-0.003906,0.991699,54.282416,-0.732422,0.305176,0.061035,29.443358,14.794921,7.763671
2019-02-14T08:58:03.7100000,0.013184,-0.003906,0.998047,54.291401,-0.732422,0.244141,0.122070,29.443358,14.794921,7.763671
2019-02-14T08:58:03.7200000,0.012695,-0.003906,0.995117,54.276425,-0.793457,0.244141,0.122070,29.443358,14.794921,7.763671
2019-02-14T08:58:03.7300000,0.012695,-0.003906,0.995117,54.273430,-0.732422,0.305176,0.122070,29.443358,14.794921,7.763671
2019-02-14T08:58:03.7400000,0.013184,-0.006836,0.998535,54.273430,-0.793457,0.305176,0.061035,29.443358,14.794921,7.763671
2019-02-14T08:58:03.7500000,0.012695,-0.005859,0.996094,54.261450,-0.854492,0.244141,0.122070,29.443358,14.794921,7.763671
2019-02-14T08:58:03.7600000,0.012207,-0.005371,0.996582,54.267440,-0.854492,0.305176,0.122070,29.296874,14.941406,7.324218
2019-02-14T08:58:03.7700000,0.014160,-0.004883,0.994629,54.285411,-0.854492,0.183105,0.061035,29.296874,14.941406,7.324218
2019-02-14T08:58:03.7800000,0.011230,-0.004883,0.991699,54.270435,-0.732422,0.244141,0.122070,29.296874,14.941406,7.324218
2019-02-14T08:58:03.7900000,0.009766,-0.004883,0.998047,54.273430,-0.732422,0.305176,0.061035,29.296874,14.941406,7.324218
2019-02-14T08:58:03.8000000,0.009766,-0.001953,0.995117,54.276425,-0.793457,0.244141,0.122070,29.296874,14.941406,7.324218
2019-02-14T08:58:03.8100000,0.011230,-0.002441,0.995117,54.267440,-0.793457,0.244141,0.061035,29.296874,14.941406,7.324218
2019-02-14T08:58:03.8200000,0.009766,-0.000488,0.993652,54.279421,-0.793457,0.305176,0.122070,29.296874,14.941406,7.324218
2019-02-14T08:58:03.8300000,0.011719,-0.003418,0.994629,54.273430,-0.793457,0.244141,0.122070,29.296874,14.941406,7.324218
2019-02-14T08:58:03.8400000,0.012207,-0.003418,0.995117,54.264445,-0.854492,0.244141,0.122070,29.296874,14.941406,7.324218
2019-02-14T08:58:03.8500000,0.012207,-0.001953,0.997559,54.264445,-0.732422,0.244141,0.000000,29.296874,14.941406,7.324218
2019-02-14T08:58:03.8600000,0.013672,-0.003906,0.995117,54.279421,-0.793457,0.183105,0.122070,29.296874,14.941406,7.324218
2019-02-14T08:58:03.8700000,0.013672,-0.001465,0.994629,54.246474,-0.854492,0.183105,0.122070,29.296874,14.941406,7.324218
2019-02-14T08:58:03.8800000,0.015137,-0.002441,0.995117,54.252464,-0.732422,0.244141,0.122070,27.539061,14.355468,9.082031
2019-02-14T08:58:03.8900000,0.013672,-0.004883,0.999023,54.258454,-0.732422,0.305176,0.122070,27.539061,14.355468,9.082031
2019-02-14T08:58:03.9000000,0.014648,-0.003418,0.997559,54.261450,-0.732422,0.427246,0.061035,27.539061,14.355468,9.082031
2019-02-14T08:58:03.9100000,0.014648,-0.004883,0.995605,54.246474,-0.793457,0.427246,0.122070,27.539061,14.355468,9.082031
2019-02-14T08:58:03.9200000,0.013672,-0.004395,0.993164,54.249469,-0.793457,0.366211,0.183105,27.539061,14.355468,9.082031
2019-02-14T08:58:03.9300000,0.011719,-0.003418,0.995605,54.258454,-0.732422,0.366211,0.122070,27.539061,14.355468,9.082031
2019-02-14T08:58:03.9400000,0.010742,-0.003418,0.992188,54.267440,-0.793457,0.305176,0.061035,27.539061,14.355468,9.082031
2019-02-14T08:58:03.9500000,0.009277,-0.003906,0.993652,54.249469,-0.793457,0.244141,0.122070,27.539061,14.355468,9.082031
2019-02-14T08:58:03.9600000,0.010254,-0.005859,0.993164,54.213527,-0.671387,0.305176,0.061035,27.539061,14.355468,9.082031
2019-02-14T08:58:03.9700000,0.011230,-0.003906,0.993652,54.228503,-0.732422,0.183105,0.183105,27.539061,14.355468,9.082031
2019-02-14T08:58:03.9800000,0.009277,-0.002930,0.994629,54.252464,-0.732422,0.122070,0.183105,27.539061,14.355468,9.082031
2019-02-14T08:58:03.9900000,0.012695,-0.005859,0.994141,54.249469,-0.793457,0.122070,0.122070,27.539061,14.355468,9.082031
2019-02-14T08:58:04.0000000,0.012207,-0.004395,0.997070,54.228503,-0.732422,0.244141,0.122070,27.539061,14.355468,8.789062
2019-02-14T08:58:04.0100000,0.012207,-0.002930,0.999023,54.228503,-0.732422,0.305176,0.061035,27.539061,14.355468,8.789062
2019-02-14T08:58:04.0200000,0.013184,-0.002930,0.996094,54.240483,-0.732422,0.305176,0.122070,27.539061,14.355468,8.789062
2019-02-14T08:58:04.0300000,0.015137,-0.003418,0.995117,54.228503,-0.793457,0.244141,0.122070,27.539061,14.355468,8.789062
2019-02-14T08:58:04.0400000,0.012207,-0.002930,0.993164,54.234493,-0.793457,0.244141,0.122070,27.539061,14.355468,8.789062
2019-02-14T08:58:04.0500000,0.012695,-0.002441,0.997070,54.222512,-0.793457,0.244141,0.122070,27.539061,14.355468,8.789062
2019-02-14T08:58:04.0600000,0.013672,-0.004395,0.994141,54.237488,-0.793457,0.305176,0.183105,27.539061,14.355468,8.789062
2019-02-14T08:58:04.0700000,0.011719,-0.000977,0.992676,54.222512,-0.793457,0.305176,0.061035,27.539061,14.355468,8.789062
2019-02-14T08:58:04.0800000,0.012207,-0.001953,0.995117,54.231498,-0.854492,0.244141,0.183105,27.539061,14.355468,8.789062
2019-02-14T08:58:04.0900000,0.008789,-0.002930,0.995117,54.228503,-0.793457,0.305176,0.122070,27.539061,14.355468,8.789062
2019-02-14T08:58:04.1000000,0.009766,-0.003906,0.994629,54.243478,-0.732422,0.366211,0.122070,27.539061,14.355468,8.789062
2019-02-14T08:58:04.1100000,0.009277,-0.004883,0.993652,54.249469,-0.671387,0.122070,0.122070,27.539061,14.355468,8.789062
2019-02-14T08:58:04.1200000,0.010742,-0.004883,0.995605,54.225507,-0.793457,0.183105,0.122070,28.710936,13.769531,8.789062
2019-02-14T08:58:04.1300000,0.009277,-0.003906,1.000000,54.231498,-0.732422,0.244141,0.122070,28.710936,13.769531,8.789062
2019-02-14T08:58:04.1400000,0.015137,-0.003906,0.995117,54.213527,-0.732422,0.244141,0.122070,28.710936,13.769531,8.789062
2019-02-14T08:58:04.1500000,0.013184,-0.002930,0.996094,54.228503,-0.732422,0.244141,0.122070,28.710936,13.769531,8.789062
2019-02-14T08:58:04.1600000,0.014160,-0.006348,0.993652,54.228503,-0.732422,0.244141,0.122070,28.710936,13.769531,8.789062
2019-02-14T08:58:04.1700000,0.015137,-0.007324,0.995605,54.234493,-0.732422,0.122070,0.122070,28.710936,13.769531,8.789062
2019-02-14T08:58:04.1800000,0.014160,-0.004883,0.996582,54.207536,-0.854492,0.244141,0.122070,28.710936,13.769531,8.789062
2019-02-14T08:58:04.1900000,0.013184,-0.004395,0.994629,54.207536,-0.732422,0.244141,0.061035,28.710936,13.769531,8.789062
2019-02-14T08:58:04.2000000,0.013672,-0.005859,0.992676,54.213527,-0.793457,0.305176,0.183105,28.710936,13.769531,8.789062
2019-02-14T08:58:04.2100000,0.012695,-0.004395,0.996094,54.210532,-0.793457,0.305176,0.122070,28.710936,13.769531,8.789062
2019-02-14T08:58:04.2200000,0.011230,-0.005859,0.992676,54.228503,-0.732422,0.305176,0.122070,28.710936,13.769531,8.789062
2019-02-14T08:58:04.2300000,0.011719,-0.004395,0.996094,54.207536,-0.854492,0.305176,0.061035,28.710936,13.769531,8.789062
2019-02-14T08:58:04.2400000,0.011719,-0.001953,0.997559,54.213527,-0.854492,0.244141,0.122070,28.710936,13.769531,8.789062
2019-02-14T08:58:04.2500000,0.009277,-0.003906,0.999023,54.204541,-0.793457,0.305176,0.061035,29.296874,14.648437,7.910156
2019-02-14T08:58:04.2600000,0.012207,-0.003418,0.998047,54.207536,-0.793457,0.244141,0.122070,29.296874,14.648437,7.910156
2019-02-14T08:58:04.2700000,0.010742,-0.001953,0.994629,54.210532,-0.793457,0.244141,0.122070,29.296874,14.648437,7.910156
2019-02-14T08:58:04.2800000,0.012207,-0.000977,0.991699,54.216522,-0.854492,0.183105,0.061035,29.296874,14.648437,7.910156
2019-02-14T08:58:04.2900000,0.012207,-0.003418,0.995117,54.207536,-0.732422,0.305176,0.122070,29.296874,14.648437,7.910156
2019-02-14T08:58:04.3000000,0.012695,-0.004395,0.998047,54.195556,-0.732422,0.305176,0.183105,29.296874,14.648437,7.910156
2019-02-14T08:58:04.3100000,0.016113,-0.003906,0.998535,54.180580,-0.854492,0.244141,0.183105,29.296874,14.648437,7.910156
2019-02-14T08:58:04.3200000,0.013672,-0.002441,0.998535,54.186570,-0.793457,0.305176,0.122070,29.296874,14.648437,7.910156
2019-02-14T08:58:04.3300000,0.011719,-0.005859,0.996094,54.189565,-0.793457,0.244141,0.061035,29.296874,14.648437,7.910156
2019-02-14T08:58:04.3400000,0.012207,-0.005859,0.994141,54.195556,-0.732422,0.305176,0.122070,29.296874,14.648437,7.910156
2019-02-14T08:58:04.3500000,0.011719,-0.005859,0.990234,54.201546,-0.732422,0.244141,0.122070,29.296874,14.648437,7.910156
2019-02-14T08:58:04.3600000,0.013184,-0.005371,0.996094,54.189565,-0.671387,0.305176,0.000000,29.296874,14.648437,7.910156
2019-02-14T08:58:04.3700000,0.012207,-0.004395,0.994629,54.201546,-0.732422,0.366211,0.000000,29.589842,14.648437,8.496093
2019-02-14T08:58:04.3800000,0.012207,-0.003906,0.998535,54.183575,-0.732422,0.305176,0.061035,29.589842,14.648437,8.496093
2019-02-14T08:58:04.3900000,0.009766,-0.002441,0.995117,54.174589,-0.732422,0.244141,0.122070,29.589842,14.648437,8.496093
2019-02-14T08:58:04.4000000,0.010742,-0.004883,0.996094,54.195556,-0.732422,0.305176,0.061035,29.589842,14.648437,8.496093
2019-02-14T08:58:04.4100000,0.011230,-0.002441,0.992188,54.195556,-0.793457,0.183105,0.122070,29.589842,14.648437,8.496093
2019-02-14T08:58:04.4200000,0.010742,-0.003418,0.994629,54.186570,-0.610352,0.122070,0.183105,29.589842,14.648437,8.496093
2019-02-14T08:58:04.4300000,0.011719,-0.003418,0.996094,54.174589,-0.671387,0.183105,0.061035,29.589842,14.648437,8.496093
2019-02-14T08:58:04.4400000,0.012207,-0.002930,0.992188,54.180580,-0.732422,0.183105,0.122070,29.589842,14.648437,8.496093
2019-02-14T08:58:04.4500000,0.015625,-0.001953,0.993652,54.192560,-0.793457,0.244141,0.061035,29.589842,14.648437,8.496093
2019-02-14T08:58:04.4600000,0.015137,-0.002930,0.996582,54.165604,-0.671387,0.183105,0.183105,29.589842,14.648437,8.496093
2019-02-14T08:58:04.4700000,0.014160,-0.002441,0.993652,54.177585,-0.732422,0.244141,0.183105,29.589842,14.648437,8.496093
2019-02-14T08:58:04.4800000,0.014648,-0.002930,0.993164,54.174589,-0.854492,0.305176,0.122070,29.589842,14.648437,8.496093
2019-02-14T08:58:04.4900000,0.011719,-0.002930,0.993164,54.168599,-0.793457,0.244141,0.183105,28.564452,15.087890,6.884765
2019-02-14T08:58:04.5000000,0.012207,-0.001465,0.995605,54.153623,-0.732422,0.305176,0.183105,28.564452,15.087890,6.884765
2019-02-14T08:58:04.5100000,0.013184,-0.003418,0.996582,54.168599,-0.793457,0.305176,0.122070,28.564452,15.087890,6.884765
2019-02-14T08:58:04.5200000,0.009766,-0.004883,0.994141,54.171594,-0.732422,0.305176,0.122070,28.564452,15.087890,6.884765
2019-02-14T08:58:04.5300000,0.010742,-0.004395,0.992188,54.171594,-0.793457,0.366211,0.183105,28.564452,15.087890,6.884765
2019-02-14T08:58:04.5400000,0.011719,-0.004883,0.995605,54.168599,-0.793457,0.305176,0.122070,28.564452,15.087890,6.884765
2019-02-14T08:58:04.5500000,0.008301,-0.003906,0.992188,54.156618,-0.732422,0.305176,0.061035,28.564452,15.087890,6.884765
2019-02-14T08:58:04.5600000,0.012695,-0.004883,0.992676,54.150628,-0.793457,0.244141,0.061035,28.564452,15.087890,6.884765
2019-02-14T08:58:04.5700000,0.012695,-0.003418,0.994629,54.147633,-0.854492,0.183105,0.183105,28.564452,15.087890,6.884765
2019-02-14T08:58:04.5800000,0.012695,-0.004883,0.997559,54.153623,-0.793457,0.183105,0.122070,28.564452,15.087890,6.884765
2019-02-14T08:58:04.5900000,0.013184,-0.003418,0.995605,54.162609,-0.793457,0.305176,0.061035,28.564452,15.087890,6.884765
2019-02-14T08:58:04.6000000,0.015625,-0.003906,0.995605,54.153623,-0.732422,0.305176,0.122070,28.564452,15.087890,6.884765
2019-02-14T08:58:04.6100000,0.012695,-0.002930,0.996094,54.165604,-0.732422,0.183105,0.183105,28.564452,15.087890,6.884765
2019-02-14T08:58:04.6200000,0.013672,-0.003418,0.996582,54.150628,-0.732422,0.183105,0.122070,28.564452,15.087890,6.884765
2019-02-14T08:58:04.6300000,0.011230,-0.003418,0.994141,54.153623,-0.732422,0.366211,0.122070,28.564452,15.087890,6.884765
2019-02-14T08:58:04.6400000,0.012695,-0.003906,0.996094,54.159614,-0.732422,0.305176,0.061035,28.564452,15.087890,6.884765
2019-02-14T08:58:04.6500000,0.012207,-0.004395,0.993164,54.144638,-0.732422,0.305176,0.000000,28.564452,15.087890,6.884765
2019-02-14T08:58:04.6600000,0.012207,-0.001465,0.995117,54.147633,-0.732422,0.305176,0.122070,28.564452,15.087890,6.884765
2019-02-14T08:58:04.6700000,0.012695,-0.003418,0.993652,54.147633,-0.732422,0.366211,0.122070,28.564452,15.087890,6.884765
2019-02-14T08:58:04.6800000,0.008789,-0.002930,0.994629,54.156618,-0.793457,0.427246,0.122070,28.564452,15.087890,6.884765
2019-02-14T08:58:04.6900000,0.008789,0.000488,0.997559,54.132657,-0.732422,0.366211,0.061035,28.564452,15.087890,6.884765
2019-02-14T08:58:04.7000000,0.010254,-0.003418,0.996094,54.138647,-0.732422,0.305176,0.122070,28.564452,15.087890,6.884765
2019-02-14T08:58:04.7100000,0.012695,-0.004883,0.997070,54.135652,-0.732422,0.244141,0.183105,28.564452,15.087890,6.884765
2019-02-14T08:58:04.7200000,0.011230,-0.006348,0.997559,54.102705,-0.732422,0.244141,0.122070,28.564452,15.087890,6.884765
2019-02-14T08:58:04.7300000,0.011719,-0.003906,0.995605,54.123671,-0.793457,0.183105,0.122070,28.564452,15.087890,6.884765
2019-02-14T08:58:04.7400000,0.013672,-0.005371,0.995117,54.129662,-0.732422,0.305176,0.122070,28.857420,14.501952,9.228515
2019-02-14T08:58:04.7500000,0.012207,-0.003906,0.994141,54.126667,-0.671387,0.183105,0.122070,28.857420,14.501952,9.228515
2019-02-14T08:58:04.7600000,0.013672,-0.003418,0.997070,54.126667,-0.793457,0.122070,0.061035,28.857420,14.501952,9.228515
2019-02-14T08:58:04.7700000,0.013184,-0.004395,0.994629,54.138647,-0.732422,0.305176,0.122070,28.857420,14.501952,9.228515
2019-02-14T08:58:04.7800000,0.011719,-0.006348,0.994141,54.129662,-0.793457,0.305176,0.183105,28.857420,14.501952,9.228515
2019-02-14T08:58:04.7900000,0.013672,-0.005371,0.995605,54.126667,-0.732422,0.366211,0.061035,28.857420,14.501952,9.228515
2019-02-14T08:58:04.8000000,0.011719,-0.004883,0.994141,54.111691,-0.793457,0.244141,0.061035,28.857420,14.501952,9.228515
2019-02-14T08:58:04.8100000,0.012207,-0.002930,0.995605,54.120676,-0.732422,0.244141,0.061035,28.857420,14.501952,9.228515
2019-02-14T08:58:04.8200000,0.010742,-0.004883,0.997070,54.123671,-0.793457,0.244141,0.122070,28.857420,14.501952,9.228515
2019-02-14T08:58:04.8300000,0.012695,-0.002441,0.995605,54.114686,-0.793457,0.305176,0.061035,28.857420,14.501952,9.228515
2019-02-14T08:58:04.8400000,0.012695,-0.002930,0.993164,54.114686,-0.793457,0.244141,0.122070,28.857420,14.501952,9.228515
2019-02-14T08:58:04.8500000,0.008789,-0.003418,0.994629,54.111691,-0.793457,0.305176,0.061035,28.857420,14.501952,9.228515
2019-02-14T08:58:04.8600000,0.011230,0.000000,0.994629,54.099710,-0.793457,0.244141,0.122070,29.443358,15.966796,8.642578
2019-02-14T08:58:04.8700000,0.013672,-0.003906,0.995117,54.102705,-0.793457,0.244141,0.183105,29.443358,15.966796,8.642578
2019-02-14T08:58:04.8800000,0.011230,-0.005371,0.998535,54.123671,-0.793457,0.244141,0.122070,29.443358,15.966796,8.642578
2019-02-14T08:58:04.8900000,0.012695,-0.002930,0.998047,54.108695,-0.732422,0.305176,0.122070,29.443358,15.966796,8.642578
2019-02-14T08:58:04.9000000,0.014648,-0.001953,0.998047,54.108695,-0.854492,0.183105,0.122070,29.443358,15.966796,8.642578
2019-02-14T08:58:04.9100000,0.014160,-0.001953,0.992188,54.102705,-0.793457,0.244141,0.061035,29.443358,15.966796,8.642578
2019-02-14T08:58:04.9200000,0.011719,-0.004395,0.992188,54.099710,-0.671387,0.244141,0.061035,29.443358,15.966796,8.642578
2019-02-14T08:58:04.9300000,0.013672,-0.005371,0.995605,54.090724,-0.732422,0.305176,0.061035,29.443358,15.966796,8.642578
2019-02-14T08:58:04.9400000,0.012207,-0.003906,0.999023,54.087729,-0.793457,0.366211,0.000000,29.443358,15.966796,8.642578
2019-02-14T08:58:04.9500000,0.011230,-0.003906,0.996582,54.093720,-0.793457,0.244141,0.122070,29.443358,15.966796,8.642578
2019-02-14T08:58:04.9600000,0.012695,-0.003906,0.991699,54.114686,-0.793457,0.305176,0.122070,29.443358,15.966796,8.642578
2019-02-14T08:58:04.9700000,0.011230,-0.005371,0.993652,54.087729,-0.854492,0.244141,0.061035,29.443358,15.966796,8.642578
2019-02-14T08:58:04.9800000,0.012207,-0.004395,0.994629,54.090724,-0.793457,0.244141,0.061035,28.271483,14.501952,8.349609
2019-02-14T08:58:04.9900000,0.010254,-0.004395,0.997070,54.111691,-0.854492,0.244141,0.061035,28.271483,14.501952,8.349609
2019-02-14T08:58:05.0000000,0.009766,-0.002930,0.997559,54.105700,-0.793457,0.183105,0.061035,28.271483,14.501952,8.349609
2019-02-14T08:58:05.0100000,0.014648,-0.004395,0.995117,54.087729,-0.854492,0.244141,0.122070,28.271483,14.501952,8.349609
2019-02-14T08:58:05.0200000,0.014648,-0.003418,0.993164,54.075749,-0.732422,0.122070,0.122070,28.271483,14.501952,8.349609
2019-02-14T08:58:05.0300000,0.013672,-0.000488,0.992188,54.078744,-0.732422,0.122070,0.122070,28.271483,14.501952,8.349609
2019-02-14T08:58:05.0400000,0.014160,-0.004395,0.994629,54.075749,-0.732422,0.305176,0.122070,28.271483,14.501952,8.349609
2019-02-14T08:58:05.0500000,0.013672,-0.001953,0.992676,54.087729,-0.854492,0.244141,0.061035,28.271483,14.501952,8.349609
2019-02-14T08:58:05.0600000,0.014160,-0.002930,0.996094,54.072753,-0.732422,0.244141,0.000000,28.271483,14.501952,8.349609
2019-02-14T08:58:05.0700000,0.013672,-0.001953,0.995117,54.066763,-0.732422,0.305176,0.061035,28.271483,14.501952,8.349609
2019-02-14T08:58:05.0800000,0.012207,-0.003906,0.998047,54.084734,-0.732422,0.427246,0.122070,28.271483,14.501952,8.349609
2019-02-14T08:58:05.0900000,0.012207,-0.003906,0.997559,54.084734,-0.793457,0.366211,0.122070,28.271483,14.501952,8.349609
2019-02-14T08:58:05.1000000,0.012207,-0.004883,0.997070,54.066763,-0.732422,0.305176,0.122070,28.271483,14.501952,8.349609
2019-02-14T08:58:05.1100000,0.011230,-0.004883,0.994629,54.078744,-0.671387,0.305176,0.122070,28.710936,13.769531,8.789062
2019-02-14T08:58:05.1200000,0.011719,-0.003906,0.994629,54.066763,-0.793457,0.427246,0.183105,28.710936,13.769531,8.789062
2019-02-14T08:58:05.1300000,0.009766,-0.002930,0.995605,54.081739,-0.854492,0.305176,0.061035,28.710936,13.769531,8.789062
2019-02-14T08:58:05.1400000,0.010742,-0.003906,0.993164,54.069758,-0.793457,0.122070,0.061035,28.710936,13.769531,8.789062
2019-02-14T08:58:05.1500000,0.011230,-0.004395,0.993164,54.069758,-0.793457,0.244141,0.061035,28.710936,13.769531,8.789062
2019-02-14T08:58:05.1600000,0.012207,-0.005371,0.997070,54.081739,-0.732422,0.366211,0.061035,28.710936,13.769531,8.789062
2019-02-14T08:58:05.1700000,0.012207,-0.004395,0.991699,54.078744,-0.732422,0.244141,0.122070,28.710936,13.769531,8.789062
2019-02-14T08:58:05.1800000,0.011719,-0.004883,0.992188,54.042802,-0.793457,0.183105,0.122070,28.710936,13.769531,8.789062
2019-02-14T08:58:05.1900000,0.012207,-0.004883,0.996094,54.039806,-0.793457,0.244141,0.061035,28.710936,13.769531,8.789062
2019-02-14T08:58:05.2000000,0.012207,-0.003418,0.997070,54.057777,-0.793457,0.305176,0.122070,28.710936,13.769531,8.789062
2019-02-14T08:58:05.2100000,0.015137,-0.004883,0.995605,54.021835,-0.793457,0.244141,0.122070,28.710936,13.769531,8.789062
2019-02-14T08:58:05.2200000,0.013672,-0.001953,0.994141,54.054782,-0.793457,0.305176,0.061035,28.710936,13.769531,8.789062
2019-02-14T08:58:05.2300000,0.011719,-0.002441,0.998047,54.060773,-0.732422,0.305176,0.122070,28.564452,15.087890,8.935546
2019-02-14T08:58:05.2400000,0.012695,-0.003418,0.998535,54.045797,-0.793457,0.366211,0.122070,28.564452,15.087890,8.935546
2019-02-14T08:58:05.2500000,0.009766,-0.002930,0.996094,54.039806,-0.671387,0.305176,0.122070,28.564452,15.087890,8.935546
2019-02-14T08:58:05.2600000,0.012207,-0.003906,0.992188,54.039806,-0.671387,0.244141,0.061035,28.564452,15.087890,8.935546
2019-02-14T08:58:05.2700000,0.011230,-0.003418,0.993164,54.051787,-0.793457,0.305176,0.061035,28.564452,15.087890,8.935546
2019-02-14T08:58:05.2800000,0.011719,-0.003906,0.993164,54.054782,-0.793457,0.305176,0.061035,28.564452,15.087890,8.935546
2019-02-14T08:58:05.2900000,0.010254,-0.003906,0.997070,54.042802,-0.793457,0.305176,0.183105,28.564452,15.087890,8.935546
2019-02-14T08:58:05.3000000,0.011230,-0.004395,0.997070,54.054782,-0.793457,0.244141,0.122070,28.564452,15.087890,8.935546
2019-02-14T08:58:05.3100000,0.011719,-0.003418,0.994141,54.066763,-0.732422,0.244141,0.000000,28.564452,15.087890,8.935546
2019-02-14T08:58:05.3200000,0.011719,-0.003906,0.993652,54.063768,-0.793457,0.183105,0.122070,28.564452,15.087890,8.935546
2019-02-14T08:58:05.3300000,0.012695,-0.005371,0.995117,54.066763,-0.854492,0.244141,0.061035,28.564452,15.087890,8.935546
2019-02-14T08:58:05.3400000,0.013184,-0.003418,0.994629,54.021835,-0.793457,0.305176,0.122070,28.564452,15.087890,8.935546
2019-02-14T08:58:05.3500000,0.012695,-0.004395,0.996582,54.033816,-0.854492,0.244141,0.122070,27.685546,14.501952,8.642578
2019-02-14T08:58:05.3600000,0.013184,-0.002930,0.993652,54.036811,-0.854492,0.244141,0.122070,27.685546,14.501952,8.642578
2019-02-14T08:58:05.3700000,0.012207,-0.003906,0.994141,54.027826,-0.793457,0.244141,0.061035,27.685546,14.501952,8.642578
2019-02-14T08:58:05.3800000,0.008789,-0.002441,0.991699,54.027826,-0.671387,0.183105,0.122070,27.685546,14.501952,8.642578
2019-02-14T08:58:05.3900000,0.005859,-0.003906,0.969238,54.039806,-0.732422,0.244141,0.061035,27.685546,14.501952,8.642578
2019-02-14T08:58:05.4000000,0.002441,0.000000,1.016602,54.012850,-0.610352,0.122070,0.061035,27.685546,14.501952,8.642578
2019-02-14T08:58:05.4100000,0.005859,-0.005859,1.004883,54.024831,-0.854492,0.305176,0.122070,27.685546,14.501952,8.642578
2019-02-14T08:58:05.4200000,0.032227,-0.009766,0.998047,54.015845,-0.915527,0.061035,0.244141,27.685546,14.501952,8.642578
2019-02-14T08:58:05.4300000,0.006836,0.001953,0.981445,54.012850,-0.732422,0.061035,0.122070,27.685546,14.501952,8.642578
2019-02-14T08:58:05.4400000,0.008789,-0.003906,0.997070,54.024831,-0.793457,0.183105,0.061035,27.685546,14.501952,8.642578
2019-02-14T08:58:05.4500000,0.021484,-0.006836,1.004395,53.997874,-0.732422,0.244141,0.061035,27.685546,14.501952,8.642578
2019-02-14T08:58:05.4600000,0.019531,0.001465,0.993164,54.006859,-0.793457,0.305176,0.122070,27.685546,14.501952,8.642578
2019-02-14T08:58:05.4700000,0.017578,-0.002930,1.003906,54.021835,-0.732422,0.305176,0.183105,30.322264,14.208984,7.470703
2019-02-14T08:58:05.4800000,0.000000,-0.002441,0.997070,54.027826,-0.915527,0.305176,0.061035,30.322264,14.208984,7.470703
2019-02-14T08:58:05.4900000,0.020996,-0.007324,0.982910,54.015845,-0.854492,0.305176,0.122070,30.322264,14.208984,7.470703
2019-02-14T08:58:05.5000000,0.013184,-0.005859,0.988770,54.009855,-0.793457,0.427246,0.061035,30.322264,14.208984,7.470703
2019-02-14T08:58:05.5100000,-0.008789,-0.001953,0.997559,54.012850,-0.610352,0.305176,0.061035,30.322264,14.208984,7.470703
2019-02-14T08:58:05.5200000,0.015137,-0.003418,0.997559,53.991884,-0.793457,0.244141,0.122070,30.322264,14.208984,7.470703
2019-02-14T08:58:05.5300000,0.020508,-0.003906,0.998047,54.006859,-0.915527,0.244141,0.061035,30.322264,14.208984,7.470703
2019-02-14T08:58:05.5400000,0.001465,-0.001953,0.996094,53.997874,-0.793457,0.305176,0.122070,30.322264,14.208984,7.470703
2019-02-14T08:58:05.5500000,0.006348,-0.003418,0.989746,53.997874,-0.793457,0.244141,0.122070,30.322264,14.208984,7.470703
2019-02-14T08:58:05.5600000,0.018555,-0.006348,0.998047,54.021835,-0.732422,0.244141,0.061035,30.322264,14.208984,7.470703
2019-02-14T08:58:05.5700000,0.009766,-0.005371,0.995605,53.997874,-0.671387,0.244141,0.061035,30.322264,14.208984,7.470703
2019-02-14T08:58:05.5800000,0.010254,-0.004395,0.995605,53.982898,-0.793457,0.183105,0.183105,30.322264,14.208984,7.470703
2019-02-14T08:58:05.5900000,0.018555,-0.006836,0.995605,53.991884,-0.854492,0.183105,0.183105,30.322264,14.208984,7.470703
2019-02-14T08:58:05.6000000,0.015137,-0.003906,0.995605,53.994879,-0.854492,0.305176,0.183105,28.564452,14.501952,8.935546
2019-02-14T08:58:05.6100000,0.011719,-0.001953,0.998047,53.985893,-0.732422,0.244141,0.061035,28.564452,14.501952,8.935546
2019-02-14T08:58:05.6200000,0.009277,-0.004395,0.995117,53.994879,-0.732422,0.244141,0.061035,28.564452,14.501952,8.935546
2019-02-14T08:58:05.6300000,0.011230,-0.003418,1.003418,53.994879,-0.793457,0.305176,0.122070,28.564452,14.501952,8.935546
2019-02-14T08:58:05.6400000,0.017090,0.000000,0.998047,54.000869,-0.793457,0.183105,0.183105,28.564452,14.501952,8.935546
2019-02-14T08:58:05.6500000,0.010254,-0.001465,0.990234,53.985893,-0.793457,0.305176,0.122070,28.564452,14.501952,8.935546
2019-02-14T08:58:05.6600000,0.007813,-0.004883,0.994141,53.976908,-0.793457,0.305176,0.122070,28.564452,14.501952,8.935546
2019-02-14T08:58:05.6700000,0.013672,-0.002930,0.997559,53.991884,-0.793457,0.305176,0.061035,28.564452,14.501952,8.935546
2019-02-14T08:58:05.6800000,0.006348,-0.000977,0.998047,53.982898,-0.732422,0.305176,0.122070,28.564452,14.501952,8.935546
2019-02-14T08:58:05.6900000,0.003418,-0.007813,0.989258,53.961932,-0.793457,0.183105,0.122070,28.564452,14.501952,8.935546
2019-02-14T08:58:05.7000000,0.015137,-0.000488,0.993164,53.961932,-0.793457,0.122070,0.122070,28.564452,14.501952,8.935546
2019-02-14T08:58:05.7100000,0.016602,0.000488,0.998047,53.979903,-0.793457,0.183105,0.122070,28.564452,14.501952,8.935546
2019-02-14T08:58:05.7200000,0.011719,-0.005371,0.999023,53.955941,-0.732422,0.244141,0.122070,28.564452,14.794921,7.470703
2019-02-14T08:58:05.7300000,0.015625,-0.004883,0.996582,53.967922,-0.732422,0.244141,0.183105,28.564452,14.794921,7.470703
2019-02-14T08:58:05.7400000,0.018066,-0.002441,0.993164,53.967922,-0.671387,0.183105,0.183105,28.564452,14.794921,7.470703
2019-02-14T08:58:05.7500000,0.014160,-0.005371,0.997070,53.967922,-0.793457,0.183105,0.061035,28.564452,14.794921,7.470703
2019-02-14T08:58:05.7600000,0.018555,-0.004883,0.988281,53.955941,-0.671387,0.305176,0.000000,28.564452,14.794921,7.470703
2019-02-14T08:58:05.7700000,0.019043,-0.002441,0.995605,53.958937,-0.671387,0.366211,0.061035,28.564452,14.794921,7.470703
2019-02-14T08:58:05.7800000,0.012695,0.000000,0.997070,53.973912,-0.732422,0.305176,0.122070,28.564452,14.794921,7.470703
2019-02-14T08:58:05.7900000,0.009766,-0.005859,0.995117,53.967922,-0.793457,0.305176,0.061035,28.564452,14.794921,7.470703
2019-02-14T08:58:05.8000000,0.006348,-0.002930,0.989746,53.979903,-0.793457,0.366211,0.122070,28.564452,14.794921,7.470703
2019-02-14T08:58:05.8100000,0.007813,-0.002930,0.996094,53.946956,-0.793457,0.366211,0.061035,28.564452,14.794921,7.470703
2019-02-14T08:58:05.8200000,0.010742,0.000000,1.000488,53.952946,-0.671387,0.305176,0.122070,28.564452,14.794921,7.470703
2019-02-14T08:58:05.8300000,0.010254,-0.003906,0.995605,53.934975,-0.732422,0.305176,0.061035,28.564452,14.794921,7.470703
2019-02-14T08:58:05.8400000,0.008789,-0.003418,0.992188,53.970917,-0.854492,0.244141,0.061035,29.296874,14.355468,8.789062
2019-02-14T08:58:05.8500000,0.013184,-0.004395,0.999023,53.946956,-0.854492,0.122070,0.122070,29.296874,14.355468,8.789062
2019-02-14T08:58:05.8600000,0.013672,-0.006348,0.993164,53.955941,-0.793457,0.122070,0.122070,29.296874,14.355468,8.789062
2019-02-14T08:58:05.8700000,0.012207,-0.005371,0.995605,53.943961,-0.854492,0.244141,0.122070,29.296874,14.355468,8.789062
2019-02-14T08:58:05.8800000,0.015625,-0.004883,0.994141,53.937970,-0.854492,0.244141,0.122070,29.296874,14.355468,8.789062
2019-02-14T08:58:05.8900000,0.016602,-0.004395,0.995605,53.934975,-0.793457,0.244141,0.122070,29.296874,14.355468,8.789062
2019-02-14T08:58:05.9000000,0.015625,-0.008789,0.996094,53.949951,-0.732422,0.305176,0.061035,29.296874,14.355468,8.789062
2019-02-14T08:58:05.9100000,0.013672,-0.006836,0.994629,53.949951,-0.732422,0.244141,0.122070,29.296874,14.355468,8.789062
2019-02-14T08:58:05.9200000,0.015137,-0.006836,0.998047,53.943961,-0.732422,0.244141,0.183105,29.296874,14.355468,8.789062
2019-02-14T08:58:05.9300000,0.011230,-0.006836,0.997070,53.908019,-0.732422,0.366211,0.122070,29.296874,14.355468,8.789062
2019-02-14T08:58:05.9400000,0.012695,-0.005371,0.996094,53.925990,-0.732422,0.305176,0.061035,29.296874,14.355468,8.789062
2019-02-14T08:58:05.9500000,0.012207,-0.002930,0.994141,53.949951,-0.793457,0.305176,0.122070,29.296874,14.355468,8.789062
2019-02-14T08:58:05.9600000,0.010742,-0.000488,0.992188,53.925990,-0.793457,0.244141,0.122070,27.392577,15.673827,7.177734
2019-02-14T08:58:05.9700000,0.007813,-0.004395,0.994141,53.917004,-0.732422,0.366211,0.061035,27.392577,15.673827,7.177734
2019-02-14T08:58:05.9800000,0.005371,-0.002930,0.999512,53.940966,-0.732422,0.305176,0.061035,27.392577,15.673827,7.177734
2019-02-14T08:58:05.9900000,0.008789,-0.000977,0.995605,53.928985,-0.732422,0.122070,0.061035,27.392577,15.673827,7.177734
2019-02-14T08:58:06.0000000,0.011719,0.000000,0.994629,53.931980,-0.732422,0.122070,0.122070,27.392577,15.673827,7.177734
2019-02-14T08:58:06.0100000,0.013184,-0.001953,0.996582,53.940966,-0.793457,0.122070,0.122070,27.392577,15.673827,7.177734
2019-02-14T08:58:06.0200000,0.012695,-0.002441,0.997559,53.922994,-0.854492,0.244141,0.061035,27.392577,15.673827,7.177734
2019-02-14T08:58:06.0300000,0.015137,-0.002441,0.996582,53.917004,-0.793457,0.183105,0.061035,27.392577,15.673827,7.177734
2019-02-14T08:58:06.0400000,0.014648,-0.002441,0.993652,53.911014,-0.854492,0.244141,0.122070,27.392577,15.673827,7.177734
2019-02-14T08:58:06.0500000,0.013672,-0.000977,0.991211,53.922994,-0.793457,0.305176,0.122070,27.392577,15.673827,7.177734
2019-02-14T08:58:06.0600000,0.018555,-0.001953,0.990234,53.896038,-0.732422,0.244141,0.122070,27.392577,15.673827,7.177734
2019-02-14T08:58:06.0700000,0.016113,-0.003418,0.996094,53.919999,-0.732422,0.244141,0.061035,27.392577,15.673827,7.177734
2019-02-14T08:58:06.0800000,0.012695,-0.005371,0.997070,53.917004,-0.854492,0.366211,0.061035,27.392577,15.673827,7.177734
2019-02-14T08:58:06.0900000,0.007813,-0.003418,0.996094,53.905023,-0.793457,0.244141,0.122070,27.246092,13.476562,7.910156
2019-02-14T08:58:06.1000000,0.005371,-0.006348,0.992188,53.914009,-0.793457,0.305176,0.183105,27.246092,13.476562,7.910156
2019-02-14T08:58:06.1100000,0.008301,-0.006348,0.997559,53.914009,-0.732422,0.244141,0.122070,27.246092,13.476562,7.910156
2019-02-14T08:58:06.1200000,0.009766,-0.004883,0.998047,53.917004,-0.732422,0.244141,0.122070,27.246092,13.476562,7.910156
2019-02-14T08:58:06.1300000,0.010254,-0.002441,0.995605,53.905023,-0.732422,0.244141,0.061035,27.246092,13.476562,7.910156
2019-02-14T08:58:06.1400000,0.009277,-0.004395,0.994141,53.902028,-0.793457,0.183105,0.183105,27.246092,13.476562,7.910156
2019-02-14T08:58:06.1500000,0.008789,-0.004395,0.992188,53.914009,-0.793457,0.061035,0.183105,27.246092,13.476562,7.910156
2019-02-14T08:58:06.1600000,0.013672,-0.006836,0.992676,53.908019,-0.854492,0.061035,0.122070,27.246092,13.476562,7.910156
2019-02-14T08:58:06.1700000,0.017578,-0.005859,0.992676,53.905023,-0.732422,0.061035,0.122070,27.246092,13.476562,7.910156
2019-02-14T08:58:06.1800000,0.015625,-0.005371,0.995117,53.905023,-0.671387,0.122070,0.061035,27.246092,13.476562,7.910156
2019-02-14T08:58:06.1900000,0.016602,-0.004395,0.996582,53.887052,-0.732422,0.061035,0.000000,27.246092,13.476562,7.910156
2019-02-14T08:58:06.2000000,0.014648,-0.005859,0.998047,53.899033,-0.732422,0.244141,0.061035,27.246092,13.476562,7.910156
2019-02-14T08:58:06.2100000,0.011230,-0.004883,0.996582,53.887052,-0.793457,0.244141,0.061035,29.296874,15.234374,7.910156
2019-02-14T08:58:06.2200000,0.012695,-0.002930,0.999023,53.890048,-0.732422,0.244141,0.061035,29.296874,15.234374,7.910156
2019-02-14T08:58:06.2300000,0.014160,-0.003906,0.994141,53.899033,-0.671387,0.305176,0.122070,29.296874,15.234374,7.910156
2019-02-14T08:58:06.2400000,0.012207,-0.000488,0.992676,53.902028,-0.671387,0.305176,0.061035,29.296874,15.234374,7.910156
2019-02-14T08:58:06.2500000,0.010742,-0.000488,0.991699,53.896038,-0.671387,0.305176,0.122070,29.296874,15.234374,7.910156
2019-02-14T08:58:06.2600000,0.010742,-0.000977,0.995605,53.884057,-0.732422,0.244141,0.122070,29.296874,15.234374,7.910156
2019-02-14T08:58:06.2700000,0.008301,0.000000,0.991699,53.919999,-0.732422,0.244141,0.061035,29.296874,15.234374,7.910156
2019-02-14T08:58:06.2800000,0.007324,0.003418,0.995117,53.887052,-0.732422,0.183105,0.061035,29.296874,15.234374,7.910156
2019-02-14T08:58:06.2900000,0.007813,0.000488,0.996094,53.890048,-0.732422,0.305176,0.061035,29.296874,15.234374,7.910156
2019-02-14T08:58:06.3000000,0.009277,0.000488,0.991699,53.893043,-0.732422,0.122070,0.122070,29.296874,15.234374,7.910156
2019-02-14T08:58:06.3100000,0.012695,0.001465,0.992676,53.887052,-0.793457,0.122070,0.183105,29.296874,15.234374,7.910156
2019-02-14T08:58:06.3200000,0.016602,0.002441,0.996094,53.896038,-0.793457,0.061035,0.122070,29.296874,15.234374,7.910156
2019-02-14T08:58:06.3300000,0.015625,-0.000488,0.996094,53.851110,-0.671387,0.061035,0.122070,28.710936,15.820312,9.375000
2019-02-14T08:58:06.3400000,0.017578,0.001465,0.997559,53.872076,-0.732422,0.122070,0.122070,28.710936,15.820312,9.375000
2019-02-14T08:58:06.3500000,0.018066,-0.001953,0.996094,53.866086,-0.793457,0.183105,0.183105,28.710936,15.820312,9.375000
2019-02-14T08:58:06.3600000,0.017090,-0.002930,0.999023,53.884057,-0.793457,0.305176,0.122070,28.710936,15.820312,9.375000
2019-02-14T08:58:06.3700000,0.018555,-0.005371,0.992676,53.863091,-0.793457,0.366211,0.122070,28.710936,15.820312,9.375000
2019-02-14T08:58:06.3800000,0.015137,-0.005859,0.997070,53.851110,-0.793457,0.305176,0.122070,28.710936,15.820312,9.375000
2019-02-14T08:58:06.3900000,0.010742,-0.006348,0.998047,53.851110,-0.793457,0.305176,0.122070,28.710936,15.820312,9.375000
2019-02-14T08:58:06.4000000,0.011719,-0.006348,0.996582,53.854105,-0.732422,0.244141,0.122070,28.710936,15.820312,9.375000
2019-02-14T08:58:06.4100000,0.008789,-0.010254,0.993652,53.863091,-0.732422,0.183105,0.122070,28.710936,15.820312,9.375000
2019-02-14T08:58:06.4200000,0.007813,-0.007813,0.998535,53.863091,-0.732422,0.183105,0.183105,28.710936,15.820312,9.375000
2019-02-14T08:58:06.4300000,0.008301,-0.007324,0.992676,53.869081,-0.671387,0.244141,0.122070,28.710936,15.820312,9.375000
2019-02-14T08:58:06.4400000,0.008789,-0.007324,0.992188,53.848115,-0.732422,0.183105,0.122070,28.710936,15.820312,9.375000
2019-02-14T08:58:06.4500000,0.010742,-0.006836,0.989746,53.851110,-0.732422,0.183105,0.061035,28.710936,15.820312,9.375000
2019-02-14T08:58:06.4600000,0.012695,-0.002930,0.993164,53.863091,-0.732422,0.122070,0.061035,28.857420,14.794921,8.349609
2019-02-14T08:58:06.4700000,0.013672,-0.001465,0.995117,53.857101,-0.732422,0.183105,0.000000,28.857420,14.794921,8.349609
2019-02-14T08:58:06.4800000,0.016602,-0.001465,0.998047,53.848115,-0.793457,0.244141,0.061035,28.857420,14.794921,8.349609
2019-02-14T08:58:06.4900000,0.015625,-0.000488,0.996094,53.863091,-0.854492,0.122070,0.122070,28.857420,14.794921,8.349609
2019-02-14T08:58:06.5000000,0.016602,0.002441,0.997070,53.848115,-0.671387,0.244141,0.122070,28.857420,14.794921,8.349609
2019-02-14T08:58:06.5100000,0.016113,0.000977,0.999023,53.863091,-0.793457,0.183105,0.061035,28.857420,14.794921,8.349609
2019-02-14T08:58:06.5200000,0.017090,0.001465,0.994629,53.845120,-0.793457,0.183105,0.061035,28.857420,14.794921,8.349609
2019-02-14T08:58:06.5300000,0.013672,0.000488,0.993164,53.836134,-0.793457,0.366211,0.122070,28.857420,14.794921,8.349609
2019-02-14T08:58:06.5400000,0.011719,-0.001465,0.993652,53.857101,-0.793457,0.427246,0.061035,28.857420,14.794921,8.349609
2019-02-14T08:58:06.5500000,0.012695,-0.003418,0.987793,53.851110,-0.854492,0.244141,0.061035,28.857420,14.794921,8.349609
2019-02-14T08:58:06.5600000,0.010254,-0.004883,0.995117,53.827149,-0.793457,0.305176,0.061035,28.857420,14.794921,8.349609
2019-02-14T08:58:06.5700000,0.012207,-0.006348,0.995605,53.845120,-0.793457,0.305176,0.061035,28.857420,14.794921,8.349609
2019-02-14T08:58:06.5800000,0.010254,-0.005371,0.997070,53.833139,-0.732422,0.244141,0.183105,27.539061,14.355468,7.617187
2019-02-14T08:58:06.5900000,0.011719,-0.009277,1.001953,53.842125,-0.793457,0.183105,0.122070,27.539061,14.355468,7.617187
2019-02-14T08:58:06.6000000,0.010742,-0.006836,0.998535,53.845120,-0.854492,0.183105,0.061035,27.539061,14.355468,7.617187
2019-02-14T08:58:06.6100000,0.013184,-0.010254,0.999023,53.827149,-0.793457,0.183105,0.061035,27.539061,14.355468,7.617187
2019-02-14T08:58:06.6200000,0.014648,-0.007813,0.994629,53.833139,-0.793457,0.183105,0.122070,27.539061,14.355468,7.617187
2019-02-14T08:58:06.6300000,0.011719,-0.008789,0.998047,53.833139,-0.793457,0.183105,0.183105,27.539061,14.355468,7.617187
2019-02-14T08:58:06.6400000,0.015137,-0.007324,0.997070,53.821158,-0.732422,0.183105,0.061035,27.539061,14.355468,7.617187
2019-02-14T08:58:06.6500000,0.014648,-0.004883,0.995117,53.821158,-0.732422,0.244141,0.122070,27.539061,14.355468,7.617187
2019-02-14T08:58:06.6600000,0.013672,-0.003418,0.996094,53.809178,-0.732422,0.305176,0.122070,27.539061,14.355468,7.617187
2019-02-14T08:58:06.6700000,0.016602,-0.002441,0.997559,53.809178,-0.732422,0.305176,0.183105,27.539061,14.355468,7.617187
2019-02-14T08:58:06.6800000,0.014160,-0.003418,0.992676,53.812173,-0.732422,0.244141,0.183105,27.539061,14.355468,7.617187
2019-02-14T08:58:06.6900000,0.012207,-0.001465,0.998535,53.818163,-0.671387,0.427246,0.122070,27.539061,14.355468,7.617187
2019-02-14T08:58:06.7000000,0.011230,-0.000977,0.997070,53.827149,-0.671387,0.427246,0.122070,28.710936,14.648437,9.375000
2019-02-14T08:58:06.7100000,0.009277,0.000488,1.000000,53.809178,-0.732422,0.305176,0.061035,28.710936,14.648437,9.375000
2019-02-14T08:58:06.7200000,0.007813,-0.000977,0.999512,53.803187,-0.793457,0.183105,0.061035,28.710936,14.648437,9.375000
2019-02-14T08:58:06.7300000,0.008789,0.000000,0.993164,53.812173,-0.732422,0.244141,0.000000,28.710936,14.648437,9.375000
2019-02-14T08:58:06.7400000,0.014160,-0.001465,0.994141,53.833139,-0.793457,0.366211,0.061035,28.710936,14.648437,9.375000
2019-02-14T08:58:06.7500000,0.014160,-0.004395,0.994141,53.818163,-0.793457,0.244141,0.183105,28.710936,14.648437,9.375000
2019-02-14T08:58:06.7600000,0.011719,-0.003906,0.991211,53.806183,-0.793457,0.183105,0.122070,28.710936,14.648437,9.375000
2019-02-14T08:58:06.7700000,0.013184,-0.003906,0.992676,53.806183,-0.915527,0.244141,0.122070,28.710936,14.648437,9.375000
2019-02-14T08:58:06.7800000,0.016602,-0.008301,0.998535,53.812173,-0.793457,0.244141,0.122070,28.710936,14.648437,9.375000
2019-02-14T08:58:06.7900000,0.015137,-0.004395,0.998535,53.803187,-0.732422,0.305176,0.183105,28.710936,14.648437,9.375000
2019-02-14T08:58:06.8000000,0.015137,-0.006836,0.996094,53.809178,-0.793457,0.244141,0.183105,28.710936,14.648437,9.375000
2019-02-14T08:58:06.8100000,0.013184,-0.007813,0.994141,53.800192,-0.793457,0.183105,0.061035,28.710936,14.648437,9.375000
2019-02-14T08:58:06.8200000,0.014160,-0.008301,0.996094,53.794202,-0.793457,0.305176,0.000000,30.175780,14.941406,8.203125
2019-02-14T08:58:06.8300000,0.011230,-0.007324,0.996582,53.806183,-0.793457,0.366211,0.061035,30.175780,14.941406,8.203125
2019-02-14T08:58:06.8400000,0.010742,-0.005371,0.996582,53.785216,-0.793457,0.366211,0.061035,30.175780,14.941406,8.203125
2019-02-14T08:58:06.8500000,0.009766,-0.004883,0.998047,53.794202,-0.732422,0.366211,0.122070,30.175780,14.941406,8.203125
2019-02-14T08:58:06.8600000,0.012207,-0.003418,0.994141,53.785216,-0.732422,0.305176,0.122070,30.175780,14.941406,8.203125
2019-02-14T08:58:06.8700000,0.011230,-0.002930,0.996094,53.791207,-0.732422,0.244141,0.122070,30.175780,14.941406,8.203125
2019-02-14T08:58:06.8800000,0.012207,-0.001465,0.996094,53.806183,-0.671387,0.183105,0.061035,30.175780,14.941406,8.203125
2019-02-14T08:58:06.8900000,0.010254,-0.000488,0.997070,53.797197,-0.732422,0.122070,0.122070,30.175780,14.941406,8.203125
2019-02-14T08:58:06.9000000,0.013184,0.000000,0.994141,53.788211,-0.732422,0.244141,0.122070,30.175780,14.941406,8.203125
2019-02-14T08:58:06.9100000,0.012695,0.000977,0.996582,53.794202,-0.732422,0.183105,0.122070,30.175780,14.941406,8.203125
2019-02-14T08:58:06.9200000,0.014160,0.000488,0.992188,53.800192,-0.793457,0.183105,0.183105,30.175780,14.941406,8.203125
2019-02-14T08:58:06.9300000,0.014160,-0.000977,0.993652,53.785216,-0.793457,0.183105,0.122070,30.175780,14.941406,8.203125
2019-02-14T08:58:06.9400000,0.013672,-0.003906,0.994141,53.776231,-0.793457,0.305176,0.061035,30.175780,14.941406,8.203125
2019-02-14T08:58:06.9500000,0.014648,-0.003418,0.993652,53.791207,-0.793457,0.366211,0.000000,29.736327,15.966796,8.349609
2019-02-14T08:58:06.9600000,0.013672,-0.004395,0.995605,53.785216,-0.854492,0.366211,0.122070,29.736327,15.966796,8.349609
2019-02-14T08:58:06.9700000,0.011719,-0.007324,0.999512,53.764250,-0.854492,0.244141,0.061035,29.736327,15.966796,8.349609
2019-02-14T08:58:06.9800000,0.013184,-0.006836,0.995605,53.776231,-0.793457,0.244141,0.122070,29.736327,15.966796,8.349609
2019-02-14T08:58:06.9900000,0.012695,-0.006836,0.995117,53.782221,-0.793457,0.366211,0.183105,29.736327,15.966796,8.349609
2019-02-14T08:58:07.0000000,0.010254,-0.006836,0.996582,53.788211,-0.793457,0.305176,0.122070,29.736327,15.966796,8.349609
2019-02-14T08:58:07.0100000,0.011226,-0.008779,0.998496,53.782071,-0.733032,0.244751,0.122070,29.736327,15.966796,8.349609
2019-02-14T08:58:07.0200000,0.010732,-0.007725,0.994668,53.767245,-0.793457,0.305176,0.122070,29.736327,15.966796,8.349609
2019-02-14T08:58:07.0300000,0.010327,-0.003403,0.996553,53.766976,-0.791626,0.303345,0.120239,29.736327,15.966796,8.349609
2019-02-14T08:58:07.0400000,0.012676,-0.002930,0.995527,53.758140,-0.732422,0.241699,0.063477,29.736327,15.966796,8.349609
2019-02-14T08:58:07.0500000,0.012280,-0.002808,0.993726,53.755564,-0.735474,0.186157,0.128174,29.736327,15.966796,8.349609
2019-02-14T08:58:07.0600000,0.013701,-0.000400,0.995117,53.760895,-0.789795,0.244141,0.233154,29.622069,15.799804,8.340820
2019-02-14T08:58:07.0700000,0.014194,0.000771,0.995117,53.755265,-0.728149,0.248413,0.061035,27.832030,13.183593,8.203125
2019-02-14T08:58:07.0800000,0.014609,-0.001680,0.995234,53.755265,-0.681152,0.300293,0.061035,27.832030,13.183593,8.203125
2019-02-14T08:58:07.0900000,0.014160,0.001377,0.996494,53.756073,-0.793457,0.249634,0.066528,27.832030,13.183593,8.203125
2019-02-14T08:58:07.1000000,0.014209,0.000342,0.995898,53.764550,-0.793457,0.305176,0.122070,27.832030,13.183593,8.203125
2019-02-14T08:58:07.1100000,0.014810,-0.001138,0.998589,53.767575,-0.786743,0.311890,0.122070,27.832030,13.183593,8.203125
2019-02-14T08:58:07.1200000,0.015938,-0.002441,0.998555,53.768443,-0.732422,0.373535,0.129395,27.832030,13.183593,8.203125
2019-02-14T08:58:07.1300000,0.014141,-0.002505,0.995244,53.755265,-0.748291,0.411377,0.183105,27.832030,13.183593,8.203125
2019-02-14T08:58:07.1400000,0.010811,-0.003340,0.995615,53.755684,-0.845947,0.296631,0.174561,27.832030,13.183593,8.203125
2019-02-14T08:58:07.1500000,0.011084,-0.005859,0.993115,53.757361,-0.793457,0.234985,0.122070,27.832030,13.183593,8.203125
2019-02-14T08:58:07.1600000,0.010410,-0.005938,0.995059,53.753228,-0.793457,0.173340,0.122070,27.832030,13.183593,8.203125
2019-02-14T08:58:07.1700000,0.011147,-0.006265,0.992354,53.757241,-0.793457,0.132446,0.132446,27.832030,13.183593,8.203125
2019-02-14T08:58:07.1800000,0.010918,-0.006035,0.994482,53.752269,-0.793457,0.183105,0.172119,27.963866,13.526367,8.282226
2019-02-14T08:58:07.1900000,0.011719,-0.006929,1.000396,53.754546,-0.781860,0.194702,0.133667,28.564452,15.087890,8.642578
2019-02-14T08:58:07.2000000,0.012109,-0.007227,1.000098,53.761255,-0.732422,0.244141,0.170898,28.564452,15.087890,8.642578
2019-02-14T08:58:07.2100000,0.013877,-0.007144,0.998438,53.748016,-0.732422,0.256958,0.122070,28.564452,15.087890,8.642578
2019-02-14T08:58:07.2200000,0.014434,-0.008193,0.991367,53.741966,-0.732422,0.305176,0.108643,28.564452,15.087890,8.642578
2019-02-14T08:58:07.2300000,0.013335,-0.007139,0.993315,53.741427,-0.732422,0.291138,0.075073,28.564452,15.087890,8.642578
2019-02-14T08:58:07.2400000,0.012676,-0.004180,0.992539,53.750233,-0.747070,0.258789,0.122070,28.564452,15.087890,8.642578
2019-02-14T08:58:07.2500000,0.014282,-0.002075,0.993896,53.735796,-0.793457,0.289917,0.137329,28.564452,15.087890,8.642578
2019-02-14T08:58:07.2600000,0.014521,-0.002314,0.993867,53.743404,-0.777588,0.228271,0.151367,28.564452,15.087890,8.642578
2019-02-14T08:58:07.2700000,0.013633,-0.001953,0.992095,53.751461,-0.732422,0.183105,0.077515,28.564452,15.087890,8.642578
2019-02-14T08:58:07.2800000,0.012070,-0.001133,0.992207,53.748436,-0.732422,0.200195,0.139160,28.564452,15.087890,8.642578
2019-02-14T08:58:07.2900000,0.011436,0.000127,0.991304,53.744542,-0.732422,0.261841,0.165405,28.564452,15.087890,8.642578
2019-02-14T08:58:07.3000000,0.010742,-0.002246,0.995996,53.737593,-0.750732,0.305176,0.140381,27.949217,14.121093,8.730468
2019-02-14T08:58:07.3100000,0.011348,-0.003232,0.997139,53.733160,-0.774536,0.324097,0.164185,26.513671,11.865234,8.935546
2019-02-14T08:58:07.3200000,0.012695,-0.003906,0.996367,53.733460,-0.751953,0.346680,0.122070,26.513671,11.865234,8.935546
2019-02-14T08:58:07.3300000,0.012373,-0.003584,0.997251,53.724324,-0.793457,0.264893,0.122070,26.513671,11.865234,8.935546
2019-02-14T08:58:07.3400000,0.012051,-0.003760,0.993320,53.719262,-0.793457,0.162354,0.122070,26.513671,11.865234,8.935546
2019-02-14T08:58:07.3500000,0.013208,-0.006396,0.993188,53.716477,-0.793457,0.164795,0.100708,26.513671,11.865234,8.935546
2019-02-14T08:58:07.3600000,0.013457,-0.007949,0.994141,53.726631,-0.793457,0.244141,0.083008,26.513671,11.865234,8.935546
2019-02-14T08:58:07.3700000,0.012930,-0.007505,0.993057,53.734298,-0.793457,0.266724,0.122070,26.513671,11.865234,8.935546
2019-02-14T08:58:07.3800000,0.014160,-0.008555,0.993623,53.728607,-0.793457,0.258789,0.145264,26.513671,11.865234,8.935546
2019-02-14T08:58:07.3900000,0.014160,-0.008242,0.998511,53.716986,-0.769653,0.206909,0.159302,26.513671,11.865234,8.935546
2019-02-14T08:58:07.4000000,0.014160,-0.006055,0.998828,53.716926,-0.756836,0.244141,0.097656,26.513671,11.865234,8.935546
2019-02-14T08:58:07.4100000,0.014561,-0.005347,0.997070,53.721090,-0.818481,0.219116,0.061035,26.513671,11.865234,8.935546
2019-02-14T08:58:07.4200000,0.014521,-0.003701,0.995635,53.724354,-0.854492,0.234375,0.086670,26.513671,11.865234,8.935546
2019-02-14T08:58:07.4300000,0.012202,-0.004048,0.993442,53.726151,-0.854492,0.305176,0.095825,26.135741,11.361328,8.683593
2019-02-14T08:58:07.4400000,0.009824,-0.003164,0.994453,53.720640,-0.800781,0.278320,0.034180,25.634764,10.693359,8.349609
2019-02-14T08:58:07.4500000,0.010156,-0.000537,0.996973,53.725013,-0.732422,0.216675,0.054932,25.634764,10.693359,8.349609
2019-02-14T08:58:07.4600000,0.011230,0.000000,0.996699,53.721419,-0.732422,0.211182,0.122070,25.634764,10.693359,8.349609
2019-02-14T08:58:07.4700000,0.011689,-0.001147,0.994429,53.706293,-0.732422,0.244141,0.122070,25.634764,10.693359,8.349609
2019-02-14T08:58:07.4800000,0.012910,-0.002207,0.994121,53.706982,-0.761719,0.273438,0.151367,25.634764,10.693359,8.349609
2019-02-14T08:58:07.4900000,0.012954,-0.002192,0.994868,53.710457,-0.793457,0.245361,0.183105,25.634764,10.693359,8.349609
2019-02-14T08:58:07.5000000,0.013428,-0.002197,0.996338,53.704346,-0.823975,0.152588,0.122070,25.634764,10.693359,8.349609
2019-02-14T08:58:07.5100000,0.014648,-0.002700,0.996812,53.704346,-0.854492,0.215454,0.029907,25.634764,10.693359,8.349609
2019-02-14T08:58:07.5200000,0.013887,-0.003926,0.995078,53.705904,-0.854492,0.336914,0.063477,25.634764,10.693359,8.349609
2019-02-14T08:58:07.5300000,0.013960,-0.004912,0.996211,53.707342,-0.854492,0.333862,0.154419,25.634764,10.693359,8.349609
2019-02-14T08:58:07.5400000,0.013857,-0.003789,0.995937,53.704107,-0.854492,0.239258,0.150146,25.634764,10.693359,8.349609
2019-02-14T08:58:07.5500000,0.013989,-0.003516,0.994678,53.701351,-0.820923,0.250244,0.088501,26.762694,11.176757,7.543945
2019-02-14T08:58:07.5600000,0.013281,-0.004941,0.994570,53.697997,-0.793457,0.270996,0.095215,27.685546,11.572265,6.884765
2019-02-14T08:58:07.5700000,0.012207,-0.005371,0.994697,53.691946,-0.828247,0.313721,0.122070,27.685546,11.572265,6.884765
2019-02-14T08:58:07.5800000,0.011924,-0.006221,0.996533,53.687633,-0.783691,0.366211,0.086670,27.685546,11.572265,6.884765
2019-02-14T08:58:07.5900000,0.012583,-0.006836,0.997271,53.684608,-0.732422,0.366211,0.097046,27.685546,11.572265,6.884765
2019-02-14T08:58:07.6000000,0.012891,-0.005957,0.996777,53.685177,-0.769043,0.292969,0.122070,27.685546,11.572265,6.884765
2019-02-14T08:58:07.6100000,0.011504,-0.004775,0.993901,53.693684,-0.793457,0.244141,0.122070,27.685546,11.572265,6.884765
2019-02-14T08:58:07.6200000,0.012559,-0.003184,0.993701,53.692785,-0.793457,0.206299,0.122070,27.685546,11.572265,6.884765
2019-02-14T08:58:07.6300000,0.012749,-0.002441,0.994937,53.693145,-0.793457,0.221558,0.083618,27.685546,11.572265,6.884765
2019-02-14T08:58:07.6400000,0.010645,-0.001816,0.994180,53.704946,-0.793457,0.205078,0.061035,27.685546,11.572265,6.884765
2019-02-14T08:58:07.6500000,0.012939,-0.000830,0.992700,53.692815,-0.753784,0.222778,0.061035,27.685546,11.572265,6.884765
2019-02-14T08:58:07.6600000,0.014004,-0.000166,0.994766,53.691288,-0.772705,0.284424,0.101318,27.685546,11.572265,6.884765
2019-02-14T08:58:07.6700000,0.013345,-0.001309,0.996421,53.697368,-0.793457,0.264282,0.122070,28.176268,13.633300,7.964355
2019-02-14T08:58:07.6800000,0.013184,-0.002285,0.997578,53.686136,-0.751953,0.202637,0.122070,28.417967,14.648437,8.496093
2019-02-14T08:58:07.6900000,0.012847,-0.002778,0.997710,53.680385,-0.774536,0.309448,0.122070,28.417967,14.648437,8.496093
2019-02-14T08:58:07.7000000,0.013379,-0.002588,0.998242,53.682482,-0.836182,0.323486,0.164795,28.417967,14.648437,8.496093
2019-02-14T08:58:07.7100000,0.014019,-0.002095,0.998188,53.679127,-0.811157,0.218506,0.139771,28.417967,14.648437,8.496093
2019-02-14T08:58:07.7200000,0.013105,-0.004414,0.995586,53.681703,-0.793457,0.227051,0.078125,28.417967,14.648437,8.496093
2019-02-14T08:58:07.7300000,0.011626,-0.004302,0.994272,53.679007,-0.838013,0.288696,0.061035,28.417967,14.648437,8.496093
2019-02-14T08:58:07.7400000,0.010869,-0.005352,0.995586,53.670741,-0.764160,0.260010,0.106201,28.417967,14.648437,8.496093
2019-02-14T08:58:07.7500000,0.011475,-0.007324,0.993530,53.661665,-0.778198,0.289917,0.076294,28.417967,14.648437,8.496093
2019-02-14T08:58:07.7600000,0.012090,-0.006699,0.994160,53.670801,-0.793457,0.351563,0.107422,28.417967,14.648437,8.496093
2019-02-14T08:58:07.7700000,0.011079,-0.005972,0.993125,53.685926,-0.840454,0.272217,0.122070,28.417967,14.648437,8.496093
2019-02-14T08:58:07.7800000,0.012266,-0.005859,0.994580,53.680026,-0.759277,0.291748,0.122070,28.417967,14.648437,8.496093
2019-02-14T08:58:07.7900000,0.012695,-0.005859,0.996274,53.658460,-0.780640,0.305176,0.122070,28.765135,15.227050,8.611816
2019-02-14T08:58:07.8000000,0.013086,-0.005859,0.996973,53.655825,-0.842285,0.256348,0.073242,28.857420,15.380859,8.642578
2019-02-14T08:58:07.8100000,0.014766,-0.005068,0.994697,53.653998,-0.805054,0.194702,0.159912,28.857420,15.380859,8.642578
2019-02-14T08:58:07.8200000,0.014336,-0.003281,0.992939,53.648516,-0.743408,0.183105,0.133057,28.857420,15.380859,8.642578
2019-02-14T08:58:07.8300000,0.014160,-0.002930,0.994702,53.659868,-0.732422,0.284424,0.172730,28.857420,15.380859,8.642578
2019-02-14T08:58:07.8400000,0.013340,-0.002520,0.995117,53.654866,-0.732422,0.305176,0.080566,28.857420,15.380859,8.642578
2019-02-14T08:58:07.8500000,0.013599,-0.001196,0.995117,53.661066,-0.784302,0.408936,0.061035,28.857420,15.380859,8.642578
2019-02-14T08:58:07.8600000,0.014512,-0.001816,0.995957,53.654686,-0.793457,0.322266,0.113525,28.857420,15.380859,8.642578
2019-02-14T08:58:07.8700000,0.012524,-0.000679,0.996943,53.635188,-0.846558,0.305176,0.122070,28.857420,15.380859,8.642578
2019-02-14T08:58:07.8800000,0.012207,-0.000918,0.997930,53.650913,-0.854492,0.305176,0.122070,28.857420,15.380859,8.642578
2019-02-14T08:58:07.8900000,0.010903,-0.001411,0.998916,53.658760,-0.854492,0.305176,0.122070,28.857420,15.380859,8.642578
2019-02-14T08:58:07.9000000,0.012500,-0.003223,0.994629,53.656723,-0.854492,0.305176,0.067139,28.857420,15.380859,8.642578
2019-02-14T08:58:07.9100000,0.012251,-0.001196,0.997251,53.640070,-0.743408,0.249634,0.061035,28.857420,15.380859,8.642578
2019-02-14T08:58:07.9200000,0.012207,-0.004121,0.998906,53.632941,-0.788574,0.300293,0.061035,28.183592,14.976562,8.777343
2019-02-14T08:58:07.9300000,0.013115,-0.003940,0.997661,53.646390,-0.793457,0.248413,0.117798,28.124999,14.941406,8.789062
2019-02-14T08:58:07.9400000,0.013184,-0.006660,0.992969,53.647438,-0.793457,0.186768,0.064697,28.124999,14.941406,8.789062
2019-02-14T08:58:07.9500000,0.010864,-0.005908,0.994995,53.644593,-0.735474,0.241089,0.061035,28.124999,14.941406,8.789062
2019-02-14T08:58:07.9600000,0.010742,-0.006328,0.996992,53.635817,-0.673828,0.244141,0.119629,28.124999,14.941406,8.789062
2019-02-14T08:58:07.9700000,0.013584,-0.004453,0.997544,53.623836,-0.730591,0.184937,0.062866,28.124999,14.941406,8.789062
2019-02-14T08:58:07.9800000,0.014150,-0.006787,0.997080,53.638153,-0.792236,0.242920,0.120850,28.124999,14.941406,8.789062
2019-02-14T08:58:07.9900000,0.013677,-0.005869,0.999004,53.605835,-0.793457,0.244141,0.122070,28.124999,14.941406,8.789062
2019-02-14T08:58:08.0000000,0.013184,-0.005371,0.995605,53.638453,-0.793457,0.366211,0.122070,28.124999,14.941406,8.789062
2019-02-14T08:58:08.0100000,0.014648,-0.005371,0.995605,53.632462,-0.732422,0.305176,0.061035,28.124999,14.941406,8.789062
2019-02-14T08:58:08.0200000,0.011719,-0.004883,0.996094,53.626472,-0.732422,0.183105,0.122070,28.124999,14.941406,8.789062
2019-02-14T08:58:08.0300000,0.011719,-0.004395,0.994141,53.638453,-0.732422,0.122070,0.122070,28.124999,14.941406,8.789062
2019-02-14T08:58:08.0400000,0.011719,-0.000488,0.993652,53.635457,-0.732422,0.244141,0.122070,28.564452,13.330077,7.763671
2019-02-14T08:58:08.0500000,0.011230,-0.001465,0.995605,53.641448,-0.793457,0.244141,0.183105,28.564452,13.330077,7.763671
2019-02-14T08:58:08.0600000,0.012695,-0.000488,0.995117,53.629467,-0.793457,0.305176,0.183105,28.564452,13.330077,7.763671
2019-02-14T08:58:08.0700000,0.011230,-0.001465,0.998535,53.620482,-0.793457,0.244141,0.061035,28.564452,13.330077,7.763671
2019-02-14T08:58:08.0800000,0.010254,-0.003418,0.998535,53.620482,-0.793457,0.244141,0.122070,28.564452,13.330077,7.763671
2019-02-14T08:58:08.0900000,0.009766,-0.003418,0.995117,53.620482,-0.793457,0.305176,0.122070,28.564452,13.330077,7.763671
2019-02-14T08:58:08.1000000,0.012695,-0.004395,0.990723,53.629467,-0.793457,0.244141,0.122070,28.564452,13.330077,7.763671
2019-02-14T08:58:08.1100000,0.014160,-0.002441,0.992676,53.626472,-0.732422,0.244141,0.183105,28.564452,13.330077,7.763671
2019-02-14T08:58:08.1200000,0.014648,-0.004395,0.992188,53.614491,-0.793457,0.183105,0.061035,28.564452,13.330077,7.763671
2019-02-14T08:58:08.1300000,0.010254,-0.005859,0.993652,53.623477,-0.854492,0.244141,0.122070,28.564452,13.330077,7.763671
2019-02-14T08:58:08.1400000,0.012695,-0.005371,0.992676,53.611496,-0.915527,0.183105,0.061035,28.564452,13.330077,7.763671
2019-02-14T08:58:08.1500000,0.014160,-0.007324,0.993164,53.611496,-0.854492,0.305176,0.000000,28.564452,13.330077,7.763671
2019-02-14T08:58:08.1600000,0.015625,-0.003906,0.996582,53.608501,-0.793457,0.305176,0.122070,28.417967,14.648437,8.789062
2019-02-14T08:58:08.1700000,0.013672,-0.005859,1.000000,53.608501,-0.793457,0.244141,0.061035,28.417967,14.648437,8.789062
2019-02-14T08:58:08.1800000,0.012207,-0.006348,1.002441,53.593525,-0.793457,0.244141,0.122070,28.417967,14.648437,8.789062
2019-02-14T08:58:08.1900000,0.010742,-0.000977,0.999023,53.596520,-0.671387,0.305176,0.122070,28.417967,14.648437,8.789062
2019-02-14T08:58:08.2000000,0.011230,-0.003906,0.995117,53.614491,-0.732422,0.305176,0.122070,28.417967,14.648437,8.789062
2019-02-14T08:58:08.2100000,0.011719,-0.002930,0.993652,53.620482,-0.732422,0.305176,0.061035,28.417967,14.648437,8.789062
2019-02-14T08:58:08.2200000,0.012695,-0.001953,0.992676,53.614491,-0.793457,0.427246,0.061035,28.417967,14.648437,8.789062
2019-02-14T08:58:08.2300000,0.010742,-0.002441,0.992188,53.593525,-0.732422,0.305176,0.122070,28.417967,14.648437,8.789062
2019-02-14T08:58:08.2400000,0.011230,0.000000,0.993652,53.593525,-0.732422,0.244141,0.122070,28.417967,14.648437,8.789062
2019-02-14T08:58:08.2500000,0.012207,-0.002441,0.993164,53.596520,-0.732422,0.244141,0.122070,28.417967,14.648437,8.789062
2019-02-14T08:58:08.2600000,0.013672,-0.001465,0.998047,53.605506,-0.732422,0.244141,0.122070,28.417967,14.648437,8.789062
2019-02-14T08:58:08.2700000,0.015625,-0.003906,0.999512,53.587535,-0.854492,0.366211,0.183105,28.417967,14.648437,8.789062
2019-02-14T08:58:08.2800000,0.013672,-0.003906,0.998047,53.602510,-0.732422,0.305176,0.183105,29.150389,14.208984,8.642578
2019-02-14T08:58:08.2900000,0.013184,-0.005859,0.996094,53.587535,-0.793457,0.366211,0.183105,29.150389,14.208984,8.642578
2019-02-14T08:58:08.3000000,0.010254,-0.003906,0.997559,53.599515,-0.732422,0.305176,0.122070,29.150389,14.208984,8.642578
2019-02-14T08:58:08.3100000,0.013672,-0.005371,0.994141,53.593525,-0.793457,0.244141,0.061035,29.150389,14.208984,8.642578
2019-02-14T08:58:08.3200000,0.012207,-0.002930,0.994141,53.620482,-0.793457,0.183105,0.061035,29.150389,14.208984,8.642578
2019-02-14T08:58:08.3300000,0.010742,-0.005371,0.992188,53.608501,-0.732422,0.244141,0.122070,29.150389,14.208984,8.642578
2019-02-14T08:58:08.3400000,0.011230,-0.007324,0.997070,53.593525,-0.732422,0.244141,0.122070,29.150389,14.208984,8.642578
2019-02-14T08:58:08.3500000,0.013184,-0.007324,0.998047,53.596520,-0.732422,0.305176,0.122070,29.150389,14.208984,8.642578
2019-02-14T08:58:08.3600000,0.012207,-0.005371,0.995117,53.605506,-0.793457,0.244141,0.122070,29.150389,14.208984,8.642578
2019-02-14T08:58:08.3700000,0.013672,-0.003906,0.995117,53.587535,-0.732422,0.305176,0.122070,29.150389,14.208984,8.642578
2019-02-14T08:58:08.3800000,0.012695,-0.003418,0.999512,53.596520,-0.793457,0.122070,0.244141,29.150389,14.208984,8.642578
2019-02-14T08:58:08.3900000,0.012207,-0.004395,0.997559,53.581544,-0.732422,0.183105,0.122070,29.150389,14.208984,8.642578
2019-02-14T08:58:08.4000000,0.011230,-0.002441,0.995117,53.587535,-0.854492,0.305176,0.122070,29.150389,14.208984,8.642578
2019-02-14T08:58:08.4100000,0.013184,-0.001465,0.996582,53.599515,-0.854492,0.305176,0.122070,28.857420,15.087890,8.935546
2019-02-14T08:58:08.4200000,0.012695,-0.000977,0.994629,53.593525,-0.732422,0.244141,0.122070,28.857420,15.087890,8.935546
2019-02-14T08:58:08.4300000,0.012695,-0.002930,0.997070,53.584539,-0.793457,0.244141,0.122070,28.857420,15.087890,8.935546
2019-02-14T08:58:08.4400000,0.012207,-0.001953,0.994629,53.581544,-0.793457,0.122070,0.183105,28.857420,15.087890,8.935546
2019-02-14T08:58:08.4500000,0.011719,-0.001465,0.991211,53.584539,-0.732422,0.305176,0.061035,28.857420,15.087890,8.935546
2019-02-14T08:58:08.4600000,0.013672,-0.001953,0.994629,53.584539,-0.793457,0.305176,0.122070,28.857420,15.087890,8.935546
2019-02-14T08:58:08.4700000,0.012695,-0.003418,0.999512,53.587535,-0.793457,0.244141,0.122070,28.857420,15.087890,8.935546
2019-02-14T08:58:08.4800000,0.012207,-0.005371,0.995117,53.581544,-0.793457,0.183105,0.122070,28.857420,15.087890,8.935546
2019-02-14T08:58:08.4900000,0.011230,-0.005859,0.995605,53.569563,-0.732422,0.305176,0.122070,28.857420,15.087890,8.935546
2019-02-14T08:58:08.5000000,0.011230,-0.007324,0.995117,53.587535,-0.793457,0.305176,0.122070,28.857420,15.087890,8.935546
2019-02-14T08:58:08.5100000,0.012695,-0.007324,0.997559,53.569563,-0.793457,0.244141,0.122070,28.857420,15.087890,8.935546
2019-02-14T08:58:08.5200000,0.014648,-0.005371,0.996094,53.575554,-0.732422,0.244141,0.122070,28.857420,15.087890,8.935546
2019-02-14T08:58:08.5300000,0.013184,-0.004883,0.998047,53.578549,-0.732422,0.244141,0.122070,29.003905,15.234374,8.496093
2019-02-14T08:58:08.5400000,0.011719,-0.004395,0.996582,53.554588,-0.732422,0.305176,0.122070,29.003905,15.234374,8.496093
2019-02-14T08:58:08.5500000,0.011230,-0.004883,1.001953,53.569563,-0.732422,0.305176,0.122070,29.003905,15.234374,8.496093
2019-02-14T08:58:08.5600000,0.013184,-0.005859,0.997070,53.578549,-0.671387,0.244141,0.122070,29.003905,15.234374,8.496093
2019-02-14T08:58:08.5700000,0.011719,-0.004395,0.995117,53.578549,-0.732422,0.305176,0.061035,29.003905,15.234374,8.496093
2019-02-14T08:58:08.5800000,0.012695,-0.005371,0.994141,53.581544,-0.732422,0.244141,0.061035,29.003905,15.234374,8.496093
2019-02-14T08:58:08.5900000,0.011230,-0.004883,0.999512,53.566568,-0.732422,0.244141,0.122070,29.003905,15.234374,8.496093
2019-02-14T08:58:08.6000000,0.013672,-0.003418,0.996094,53.536617,-0.732422,0.244141,0.000000,29.003905,15.234374,8.496093
2019-02-14T08:58:08.6100000,0.013672,-0.002441,0.995117,53.566568,-0.732422,0.183105,0.061035,29.003905,15.234374,8.496093
2019-02-14T08:58:08.6200000,0.012207,-0.001953,0.996582,53.557583,-0.793457,0.244141,0.122070,29.003905,15.234374,8.496093
2019-02-14T08:58:08.6300000,0.015625,-0.001953,0.991699,53.542607,-0.793457,0.244141,0.122070,29.003905,15.234374,8.496093
2019-02-14T08:58:08.6400000,0.013184,-0.001465,0.992188,53.539612,-0.854492,0.122070,0.122070,29.003905,15.234374,8.496093
2019-02-14T08:58:08.6500000,0.015137,-0.002930,0.995605,53.551592,-0.793457,0.305176,0.122070,28.857420,16.259765,9.228515
2019-02-14T08:58:08.6600000,0.012695,-0.002930,0.995117,53.554588,-0.793457,0.305176,0.122070,28.857420,16.259765,9.228515
2019-02-14T08:58:08.6700000,0.011719,-0.002441,0.996582,53.566568,-0.793457,0.183105,0.061035,28.857420,16.259765,9.228515
2019-02-14T08:58:08.6800000,0.013184,-0.004395,1.000000,53.545602,-0.793457,0.183105,0.061035,28.857420,16.259765,9.228515
2019-02-14T08:58:08.6900000,0.011719,-0.005859,0.996094,53.551592,-0.793457,0.244141,0.122070,28.857420,16.259765,9.228515
2019-02-14T08:58:08.7000000,0.012207,-0.004883,0.995117,53.557583,-0.793457,0.244141,0.061035,28.857420,16.259765,9.228515
2019-02-14T08:58:08.7100000,0.014160,-0.003418,0.993652,53.554588,-0.793457,0.305176,0.061035,28.857420,16.259765,9.228515
2019-02-14T08:58:08.7200000,0.013672,-0.005859,0.993652,53.551592,-0.793457,0.244141,0.183105,28.857420,16.259765,9.228515
2019-02-14T08:58:08.7300000,0.015137,-0.004395,0.995605,53.560578,-0.732422,0.122070,0.183105,28.857420,16.259765,9.228515
2019-02-14T08:58:08.7400000,0.011719,-0.004883,0.993164,53.530626,-0.793457,0.244141,0.183105,28.857420,16.259765,9.228515
2019-02-14T08:58:08.7500000,0.011719,-0.002441,0.994629,53.551592,-0.793457,0.183105,0.183105,28.857420,16.259765,9.228515
2019-02-14T08:58:08.7600000,0.013672,-0.003906,0.995117,53.548597,-0.793457,0.305176,0.183105,28.857420,16.259765,9.228515
2019-02-14T08:58:08.7700000,0.014648,-0.001953,0.994629,53.530626,-0.793457,0.305176,0.183105,28.857420,16.259765,9.228515
2019-02-14T08:58:08.7800000,0.012695,-0.003906,0.999023,53.533621,-0.793457,0.305176,0.122070,27.978514,15.673827,8.642578
2019-02-14T08:58:08.7900000,0.012695,-0.003418,0.996582,53.548597,-0.732422,0.305176,0.061035,27.978514,15.673827,8.642578
2019-02-14T08:58:08.8000000,0.012695,-0.001953,0.997070,53.545602,-0.793457,0.366211,0.122070,27.978514,15.673827,8.642578
2019-02-14T08:58:08.8100000,0.011230,-0.003418,0.995605,53.542607,-0.793457,0.244141,0.183105,27.978514,15.673827,8.642578
2019-02-14T08:58:08.8200000,0.012695,-0.004883,0.994629,53.536617,-0.854492,0.183105,0.122070,27.978514,15.673827,8.642578
2019-02-14T08:58:08.8300000,0.011230,-0.003418,0.994629,53.533621,-0.793457,0.244141,0.183105,27.978514,15.673827,8.642578
2019-02-14T08:58:08.8400000,0.014160,0.000000,0.992188,53.530626,-0.793457,0.244141,0.122070,27.978514,15.673827,8.642578
2019-02-14T08:58:08.8500000,0.014648,-0.003418,0.992676,53.554588,-0.732422,0.183105,0.122070,27.978514,15.673827,8.642578
2019-02-14T08:58:08.8600000,0.012695,-0.003418,0.995117,53.527631,-0.732422,0.183105,0.122070,27.978514,15.673827,8.642578
2019-02-14T08:58:08.8700000,0.012695,-0.005859,0.998535,53.524636,-0.732422,0.183105,0.061035,27.978514,15.673827,8.642578
2019-02-14T08:58:08.8800000,0.012207,-0.005371,0.997559,53.515650,-0.671387,0.183105,0.122070,27.978514,15.673827,8.642578
2019-02-14T08:58:08.8900000,0.012695,-0.005859,0.994629,53.539612,-0.732422,0.244141,0.122070,27.978514,15.673827,8.642578
2019-02-14T08:58:08.9000000,0.013184,-0.003906,0.996582,53.521641,-0.793457,0.244141,0.122070,28.124999,14.355468,9.082031
2019-02-14T08:58:08.9100000,0.013184,-0.004395,0.997070,53.524636,-0.793457,0.305176,0.122070,28.124999,14.355468,9.082031
2019-02-14T08:58:08.9200000,0.012695,-0.002930,0.994629,53.530626,-0.793457,0.122070,0.061035,28.124999,14.355468,9.082031
2019-02-14T08:58:08.9300000,0.013672,-0.004395,0.994141,53.527631,-0.732422,0.244141,0.122070,28.124999,14.355468,9.082031
2019-02-14T08:58:08.9400000,0.012695,-0.004883,0.994629,53.527631,-0.854492,0.183105,0.061035,28.124999,14.355468,9.082031
2019-02-14T08:58:08.9500000,0.014160,-0.004395,0.994629,53.530626,-0.854492,0.183105,0.061035,28.124999,14.355468,9.082031
2019-02-14T08:58:08.9600000,0.012695,-0.004883,0.996094,53.509660,-0.793457,0.122070,0.061035,28.124999,14.355468,9.082031
2019-02-14T08:58:08.9700000,0.011719,-0.003418,1.001465,53.512655,-0.671387,0.305176,0.061035,28.124999,14.355468,9.082031
2019-02-14T08:58:08.9800000,0.011230,-0.003418,0.997070,53.530626,-0.732422,0.305176,0.061035,28.124999,14.355468,9.082031
2019-02-14T08:58:08.9900000,0.013184,-0.004395,0.995605,53.524636,-0.793457,0.244141,0.122070,28.124999,14.355468,9.082031
2019-02-14T08:58:09.0000000,0.010742,-0.003906,0.992676,53.515650,-0.793457,0.305176,0.000000,28.124999,14.355468,9.082031
2019-02-14T08:58:09.0100000,0.011230,-0.002441,0.996582,53.515650,-0.671387,0.305176,0.122070,28.124999,14.355468,9.082031
2019-02-14T08:58:09.0200000,0.014648,-0.003418,0.994629,53.500674,-0.732422,0.244141,0.122070,28.710936,13.476562,7.617187
2019-02-14T08:58:09.0300000,0.015137,-0.003906,0.999512,53.476713,-0.793457,0.244141,0.061035,28.710936,13.476562,7.617187
2019-02-14T08:58:09.0400000,0.013672,-0.001953,0.995605,53.515650,-0.671387,0.244141,0.122070,28.710936,13.476562,7.617187
2019-02-14T08:58:09.0500000,0.012695,-0.002441,0.995605,53.524636,-0.732422,0.305176,0.122070,28.710936,13.476562,7.617187
2019-02-14T08:58:09.0600000,0.015625,-0.002930,0.994629,53.512655,-0.793457,0.244141,0.183105,28.710936,13.476562,7.617187
2019-02-14T08:58:09.0700000,0.014160,-0.002441,0.997070,53.527631,-0.732422,0.244141,0.183105,28.710936,13.476562,7.617187
2019-02-14T08:58:09.0800000,0.013184,-0.004395,0.995605,53.509660,-0.732422,0.366211,0.183105,28.710936,13.476562,7.617187
2019-02-14T08:58:09.0900000,0.009766,-0.005859,0.992676,53.497679,-0.854492,0.244141,0.061035,28.710936,13.476562,7.617187
2019-02-14T08:58:09.1000000,0.011719,-0.004883,0.996094,53.503670,-0.793457,0.305176,0.061035,28.710936,13.476562,7.617187
2019-02-14T08:58:09.1100000,0.013184,-0.004395,0.995117,53.497679,-0.793457,0.244141,0.061035,28.710936,13.476562,7.617187
2019-02-14T08:58:09.1200000,0.012695,-0.003418,0.995605,53.500674,-0.854492,0.244141,0.061035,28.710936,13.476562,7.617187
2019-02-14T08:58:09.1300000,0.010742,-0.004883,0.996582,53.503670,-0.793457,0.244141,0.061035,28.710936,13.476562,7.617187
2019-02-14T08:58:09.1400000,0.014160,-0.004883,0.995605,53.500674,-0.793457,0.244141,0.122070,29.003905,14.062499,9.082031
2019-02-14T08:58:09.1500000,0.013672,-0.005371,0.999512,53.497679,-0.793457,0.305176,0.122070,29.003905,14.062499,9.082031
2019-02-14T08:58:09.1600000,0.012695,-0.002441,0.996582,53.506665,-0.793457,0.244141,0.061035,29.003905,14.062499,9.082031
2019-02-14T08:58:09.1700000,0.012207,-0.005371,0.993652,53.509660,-0.732422,0.244141,0.122070,29.003905,14.062499,9.082031
2019-02-14T08:58:09.1800000,0.014648,-0.003418,0.998047,53.497679,-0.793457,0.244141,0.244141,29.003905,14.062499,9.082031
2019-02-14T08:58:09.1900000,0.013184,-0.002441,0.998535,53.497679,-0.732422,0.183105,0.061035,29.003905,14.062499,9.082031
2019-02-14T08:58:09.2000000,0.011230,-0.000977,0.995117,53.473718,-0.854492,0.122070,0.122070,29.003905,14.062499,9.082031
2019-02-14T08:58:09.2100000,0.013672,-0.002441,0.995117,53.482703,-0.793457,0.183105,0.122070,29.003905,14.062499,9.082031
2019-02-14T08:58:09.2200000,0.014160,-0.003418,0.994629,53.485699,-0.793457,0.366211,0.183105,29.003905,14.062499,9.082031
2019-02-14T08:58:09.2300000,0.013672,-0.002930,0.997070,53.482703,-0.732422,0.244141,0.183105,29.003905,14.062499,9.082031
2019-02-14T08:58:09.2400000,0.012695,-0.002930,0.995117,53.488694,-0.793457,0.244141,0.122070,29.003905,14.062499,9.082031
2019-02-14T08:58:09.2500000,0.012695,-0.003418,0.988770,53.476713,-0.732422,0.244141,0.122070,29.003905,14.062499,9.082031
2019-02-14T08:58:09.2600000,0.011719,-0.002930,0.994629,53.497679,-0.732422,0.305176,0.122070,29.003905,14.062499,9.082031
2019-02-14T08:58:09.2700000,0.009277,-0.004883,0.999023,53.485699,-0.793457,0.305176,0.122070,27.832030,15.234374,8.203125
2019-02-14T08:58:09.2800000,0.011230,-0.003906,0.998535,53.491689,-0.793457,0.244141,0.122070,27.832030,15.234374,8.203125
2019-02-14T08:58:09.2900000,0.010254,-0.003418,0.994141,53.488694,-0.793457,0.183105,0.122070,27.832030,15.234374,8.203125
2019-02-14T08:58:09.3000000,0.011230,-0.005859,0.997070,53.488694,-0.732422,0.244141,0.122070,27.832030,15.234374,8.203125
2019-02-14T08:58:09.3100000,0.012695,-0.007324,0.997559,53.491689,-0.793457,0.305176,0.122070,27.832030,15.234374,8.203125
2019-02-14T08:58:09.3200000,0.014648,-0.004883,0.996582,53.473718,-0.732422,0.183105,0.122070,27.832030,15.234374,8.203125
2019-02-14T08:58:09.3300000,0.012207,-0.005859,0.994629,53.458742,-0.732422,0.183105,0.122070,27.832030,15.234374,8.203125
2019-02-14T08:58:09.3400000,0.014160,-0.004395,0.991211,53.464732,-0.793457,0.244141,0.122070,27.832030,15.234374,8.203125
2019-02-14T08:58:09.3500000,0.013184,-0.003906,0.993164,53.476713,-0.793457,0.183105,0.122070,27.832030,15.234374,8.203125
2019-02-14T08:58:09.3600000,0.013184,-0.003418,0.993652,53.479708,-0.671387,0.122070,0.183105,27.832030,15.234374,8.203125
2019-02-14T08:58:09.3700000,0.013184,-0.002441,0.996094,53.473718,-0.732422,0.244141,0.122070,27.832030,15.234374,8.203125
2019-02-14T08:58:09.3800000,0.016113,-0.002930,0.996094,53.461737,-0.854492,0.305176,0.122070,27.832030,15.234374,8.203125
2019-02-14T08:58:09.3900000,0.012695,-0.002441,0.999512,53.473718,-0.732422,0.244141,0.061035,28.710936,14.941406,8.203125
2019-02-14T08:58:09.4000000,0.012207,-0.002441,0.995117,53.455747,-0.793457,0.244141,0.061035,28.710936,14.941406,8.203125
2019-02-14T08:58:09.4100000,0.013672,-0.003906,0.996582,53.464732,-0.732422,0.305176,0.183105,28.710936,14.941406,8.203125
2019-02-14T08:58:09.4200000,0.011719,-0.001465,0.995117,53.452752,-0.610352,0.244141,0.061035,28.710936,14.941406,8.203125
2019-02-14T08:58:09.4300000,0.014648,-0.003418,0.998047,53.461737,-0.610352,0.305176,0.183105,28.710936,14.941406,8.203125
2019-02-14T08:58:09.4400000,0.013672,-0.004883,0.993652,53.464732,-0.793457,0.366211,0.122070,28.710936,14.941406,8.203125
2019-02-14T08:58:09.4500000,0.012207,-0.002930,1.000000,53.464732,-0.793457,0.244141,0.122070,28.710936,14.941406,8.203125
2019-02-14T08:58:09.4600000,0.012207,-0.002930,0.996582,53.455747,-0.854492,0.244141,0.183105,28.710936,14.941406,8.203125
2019-02-14T08:58:09.4700000,0.012207,-0.004395,0.995117,53.461737,-0.671387,0.305176,0.122070,28.710936,14.941406,8.203125
2019-02-14T08:58:09.4800000,0.012207,-0.003906,0.995605,53.440771,-0.732422,0.305176,0.122070,28.710936,14.941406,8.203125
2019-02-14T08:58:09.4900000,0.011230,-0.003418,0.994141,53.437776,-0.732422,0.305176,0.122070,28.710936,14.941406,8.203125
2019-02-14T08:58:09.5000000,0.011230,-0.003418,0.995117,53.452752,-0.671387,0.244141,0.122070,28.710936,14.941406,8.203125
2019-02-14T08:58:09.5100000,0.011719,-0.002441,0.996094,53.458742,-0.793457,0.244141,0.122070,28.564452,15.380859,8.935546
2019-02-14T08:58:09.5200000,0.012695,-0.004883,0.996094,53.455747,-0.732422,0.244141,0.000000,28.564452,15.380859,8.935546
2019-02-14T08:58:09.5300000,0.014160,-0.003906,0.995605,53.434780,-0.732422,0.244141,0.061035,28.564452,15.380859,8.935546
2019-02-14T08:58:09.5400000,0.015625,-0.005859,0.996094,53.434780,-0.793457,0.305176,0.061035,28.564452,15.380859,8.935546
2019-02-14T08:58:09.5500000,0.013184,-0.003906,0.995117,53.434780,-0.854492,0.244141,0.122070,28.564452,15.380859,8.935546
2019-02-14T08:58:09.5600000,0.011230,-0.004883,0.994629,53.440771,-0.732422,0.244141,0.122070,28.564452,15.380859,8.935546
2019-02-14T08:58:09.5700000,0.012207,-0.003906,0.994141,53.434780,-0.793457,0.244141,0.061035,28.564452,15.380859,8.935546
2019-02-14T08:58:09.5800000,0.011230,-0.001953,0.995117,53.434780,-0.793457,0.244141,0.061035,28.564452,15.380859,8.935546
2019-02-14T08:58:09.5900000,0.014160,-0.001953,0.997559,53.431785,-0.793457,0.122070,0.122070,28.564452,15.380859,8.935546
2019-02-14T08:58:09.6000000,0.013672,-0.003418,0.992188,53.431785,-0.671387,0.244141,0.122070,28.564452,15.380859,8.935546
2019-02-14T08:58:09.6100000,0.012695,-0.002441,0.999023,53.425795,-0.732422,0.183105,0.183105,28.564452,15.380859,8.935546
2019-02-14T08:58:09.6200000,0.014160,-0.002930,0.994629,53.437776,-0.793457,0.305176,0.183105,28.564452,15.380859,8.935546
2019-02-14T08:58:09.6300000,0.013184,-0.002441,0.995605,53.437776,-0.732422,0.244141,0.122070,28.564452,13.916015,8.349609
2019-02-14T08:58:09.6400000,0.013184,-0.005859,0.992676,53.422800,-0.793457,0.244141,0.183105,28.564452,13.916015,8.349609
2019-02-14T08:58:09.6500000,0.012695,-0.002930,0.992188,53.413814,-0.854492,0.244141,0.122070,28.564452,13.916015,8.349609
2019-02-14T08:58:09.6600000,0.013184,-0.005859,0.996094,53.428790,-0.732422,0.244141,0.122070,28.564452,13.916015,8.349609
2019-02-14T08:58:09.6700000,0.014160,-0.005859,0.996094,53.425795,-0.793457,0.244141,0.122070,28.564452,13.916015,8.349609
2019-02-14T08:58:09.6800000,0.012695,-0.006348,0.997559,53.437776,-0.793457,0.244141,0.122070,28.564452,13.916015,8.349609
2019-02-14T08:58:09.6900000,0.011230,-0.006348,0.991699,53.419805,-0.793457,0.244141,0.122070,28.564452,13.916015,8.349609
2019-02-14T08:58:09.7000000,0.013184,-0.005859,0.997559,53.416809,-0.732422,0.244141,0.122070,28.564452,13.916015,8.349609
