------------ Data File Created By ActiGraph Link IMU 9DOF Sensor ActiLife v6.12.0 Firmware v1.3.0 date format M/d/yyyy at 100 Hz  -----------,,,,,,,,,,
Serial Number: TAS1D50140012,,,,,,,,,,
Start Time 15:45:00,,,,,,,,,,
Start Date 11/12/2015,,,,,,,,,,
Epoch Period (hh:mm:ss) 00:00:00,,,,,,,,,,
Download Time 17:45:17,,,,,,,,,,
Download Date 11/12/2015,,,,,,,,,,
Current Memory Address: 0,,,,,,,,,,
Current Battery Voltage: 4.11     Mode = 12,,,,,,,,,,
--------------------------------------------------,,,,,,,,,,
Timestamp,Accelerometer X,Accelerometer Y,Accelerometer Z,Temperature,Gyroscope X,Gyroscope Y,Gyroscope Z,Magnetometer X,Magnetometer Y,Magnetometer Z
2015-11-12T15:45:00.0000000,-0.002441,-0.016113,0.981445,24.219816,0.305176,0.671387,0.12207,37.939451,15.08789,61.669919
2015-11-12T15:45:00.0100000,0,-0.016113,0.98584,24.252763,0.244141,0.610352,0.305176,37.939451,15.08789,61.669919
2015-11-12T15:45:00.0200000,-0.002441,-0.014648,0.982422,24.246773,0.183105,0.549316,0.305176,37.939451,15.08789,61.669919
2015-11-12T15:45:00.0300000,-0.001465,-0.016602,0.981934,24.255758,0.244141,0.549316,0.305176,37.939451,15.08789,61.669919
2015-11-12T15:45:00.0400000,-0.001465,-0.016602,0.98291,24.249768,0.244141,0.549316,0.305176,37.939451,15.08789,61.669919
2015-11-12T15:45:00.0500000,-0.003418,-0.014648,0.984375,24.249768,0.244141,0.549316,0.366211,37.939451,15.08789,61.669919
2015-11-12T15:45:00.0600000,-0.000977,-0.016602,0.982422,24.261749,0.183105,0.610352,0.305176,37.939451,15.08789,61.669919
2015-11-12T15:45:00.0700000,-0.002441,-0.016113,0.980957,24.264744,0.244141,0.671387,0.305176,37.939451,15.08789,61.669919
2015-11-12T15:45:00.0800000,-0.001465,-0.018066,0.98291,24.276725,0.244141,0.610352,0.366211,37.939451,15.08789,61.669919
2015-11-12T15:45:00.0900000,-0.001465,-0.01709,0.980957,24.267739,0.183105,0.549316,0.305176,37.939451,15.08789,61.669919
2015-11-12T15:45:00.1000000,-0.003418,-0.016602,0.982422,24.273729,0.305176,0.671387,0.244141,37.939451,15.08789,61.669919
2015-11-12T15:45:00.1100000,0,-0.017578,0.982422,24.249768,0.183105,0.610352,0.183105,37.939451,15.08789,61.669919
2015-11-12T15:45:00.1200000,0,-0.015625,0.983398,24.273729,0.183105,0.610352,0.305176,37.939451,15.08789,61.669919
2015-11-12T15:45:00.1300000,0,-0.013184,0.983887,24.2917,0.244141,0.610352,0.305176,38.964842,15.527343,61.230466
2015-11-12T15:45:00.1400000,-0.001953,-0.016113,0.984375,24.294696,0.183105,0.610352,0.305176,38.964842,15.527343,61.230466
2015-11-12T15:45:00.1500000,-0.002441,-0.017578,0.980957,24.300686,0.183105,0.610352,0.244141,38.964842,15.527343,61.230466
2015-11-12T15:45:00.1600000,-0.001953,-0.015625,0.98291,24.2917,0.244141,0.732422,0.305176,38.964842,15.527343,61.230466
2015-11-12T15:45:00.1700000,-0.000488,-0.015137,0.985352,24.303681,0.366211,0.671387,0.244141,38.964842,15.527343,61.230466
2015-11-12T15:45:00.1800000,-0.001953,-0.01416,0.983887,24.306676,0.183105,0.732422,0.366211,38.964842,15.527343,61.230466
2015-11-12T15:45:00.1900000,-0.000977,-0.016113,0.979492,24.2917,0.183105,0.610352,0.305176,38.964842,15.527343,61.230466
2015-11-12T15:45:00.2000000,-0.000488,-0.018066,0.982422,24.300686,0.244141,0.610352,0.305176,38.964842,15.527343,61.230466
2015-11-12T15:45:00.2100000,-0.003418,-0.018066,0.97998,24.312667,0.183105,0.671387,0.427246,38.964842,15.527343,61.230466
2015-11-12T15:45:00.2200000,-0.002441,-0.01416,0.98584,24.318657,0.244141,0.610352,0.305176,38.964842,15.527343,61.230466
2015-11-12T15:45:00.2300000,-0.00293,-0.015625,0.984375,24.303681,0.183105,0.549316,0.305176,38.964842,15.527343,61.230466
2015-11-12T15:45:00.2400000,-0.003418,-0.016602,0.981934,24.321652,0.183105,0.671387,0.244141,38.964842,15.527343,61.230466
2015-11-12T15:45:00.2500000,-0.003906,-0.015137,0.984375,24.315662,0.183105,0.610352,0.305176,38.525389,16.259765,61.669919
2015-11-12T15:45:00.2600000,-0.002441,-0.015137,0.986328,24.321652,0.12207,0.549316,0.244141,38.525389,16.259765,61.669919
2015-11-12T15:45:00.2700000,-0.001953,-0.01709,0.986328,24.330638,0.183105,0.549316,0.244141,38.525389,16.259765,61.669919
2015-11-12T15:45:00.2800000,-0.00293,-0.017578,0.984375,24.351604,0.244141,0.610352,0.305176,38.525389,16.259765,61.669919
2015-11-12T15:45:00.2900000,-0.001465,-0.01709,0.98584,24.342618,0.244141,0.549316,0.366211,38.525389,16.259765,61.669919
2015-11-12T15:45:00.3000000,-0.001953,-0.015137,0.983887,24.348609,0.183105,0.610352,0.305176,38.525389,16.259765,61.669919
2015-11-12T15:45:00.3100000,-0.000488,-0.01709,0.980469,24.336628,0.183105,0.610352,0.366211,38.525389,16.259765,61.669919
2015-11-12T15:45:00.3200000,-0.004395,-0.01709,0.980957,24.351604,0.183105,0.610352,0.366211,38.525389,16.259765,61.669919
2015-11-12T15:45:00.3300000,-0.001953,-0.01709,0.981934,24.345614,0.183105,0.610352,0.366211,38.525389,16.259765,61.669919
2015-11-12T15:45:00.3400000,-0.001953,-0.016113,0.982422,24.354599,0.244141,0.610352,0.305176,38.525389,16.259765,61.669919
2015-11-12T15:45:00.3500000,-0.001953,-0.017578,0.982422,24.351604,0.244141,0.549316,0.244141,38.525389,16.259765,61.669919
2015-11-12T15:45:00.3600000,-0.001465,-0.01709,0.98584,24.348609,0.244141,0.610352,0.305176,38.525389,16.259765,61.669919
2015-11-12T15:45:00.3700000,-0.003418,-0.016602,0.981934,24.37257,0.244141,0.549316,0.244141,38.525389,16.259765,61.669919
2015-11-12T15:45:00.3800000,-0.00293,-0.017578,0.983398,24.37257,0.183105,0.549316,0.305176,38.378904,16.11328,60.937497
2015-11-12T15:45:00.3900000,-0.00293,-0.017578,0.982422,24.387546,0.305176,0.610352,0.244141,38.378904,16.11328,60.937497
2015-11-12T15:45:00.4000000,-0.002441,-0.014648,0.983398,24.381556,0.244141,0.610352,0.244141,38.378904,16.11328,60.937497
2015-11-12T15:45:00.4100000,-0.00293,-0.016602,0.981934,24.384551,0.244141,0.549316,0.366211,38.378904,16.11328,60.937497
2015-11-12T15:45:00.4200000,0.000488,-0.018066,0.983398,24.393536,0.244141,0.549316,0.305176,38.378904,16.11328,60.937497
2015-11-12T15:45:00.4300000,-0.000977,-0.016602,0.983398,24.396532,0.244141,0.610352,0.244141,38.378904,16.11328,60.937497
2015-11-12T15:45:00.4400000,-0.001465,-0.01416,0.981934,24.399527,0.244141,0.610352,0.183105,38.378904,16.11328,60.937497
2015-11-12T15:45:00.4500000,-0.001465,-0.015625,0.980957,24.381556,0.244141,0.671387,0.183105,38.378904,16.11328,60.937497
2015-11-12T15:45:00.4600000,-0.003418,-0.017578,0.983887,24.384551,0.244141,0.549316,0.244141,38.378904,16.11328,60.937497
2015-11-12T15:45:00.4700000,-0.001953,-0.017578,0.98584,24.402522,0.244141,0.610352,0.244141,38.378904,16.11328,60.937497
2015-11-12T15:45:00.4800000,-0.001465,-0.016602,0.983398,24.396532,0.305176,0.549316,0.305176,38.378904,16.11328,60.937497
2015-11-12T15:45:00.4900000,-0.00293,-0.01709,0.983887,24.390541,0.244141,0.549316,0.366211,38.378904,16.11328,60.937497
2015-11-12T15:45:00.5000000,-0.003906,-0.01709,0.984863,24.411508,0.183105,0.610352,0.305176,38.378904,15.820312,62.109372
2015-11-12T15:45:00.5100000,-0.000488,-0.015625,0.984863,24.408512,0.244141,0.549316,0.305176,38.378904,15.820312,62.109372
2015-11-12T15:45:00.5200000,-0.000488,-0.01709,0.982422,24.408512,0.244141,0.610352,0.305176,38.378904,15.820312,62.109372
2015-11-12T15:45:00.5300000,-0.001953,-0.017578,0.983398,24.420493,0.183105,0.549316,0.305176,38.378904,15.820312,62.109372
2015-11-12T15:45:00.5400000,-0.003418,-0.015625,0.986328,24.411508,0.244141,0.549316,0.305176,38.378904,15.820312,62.109372
2015-11-12T15:45:00.5500000,-0.001465,-0.018066,0.983398,24.405517,0.183105,0.488281,0.305176,38.378904,15.820312,62.109372
2015-11-12T15:45:00.5600000,-0.001953,-0.015137,0.982422,24.417498,0.305176,0.549316,0.305176,38.378904,15.820312,62.109372
2015-11-12T15:45:00.5700000,-0.003418,-0.015625,0.982422,24.420493,0.183105,0.671387,0.366211,38.378904,15.820312,62.109372
2015-11-12T15:45:00.5800000,-0.00293,-0.015625,0.98291,24.414503,0.183105,0.610352,0.366211,38.378904,15.820312,62.109372
2015-11-12T15:45:00.5900000,-0.002441,-0.018555,0.98291,24.426483,0.244141,0.549316,0.305176,38.378904,15.820312,62.109372
2015-11-12T15:45:00.6000000,-0.001953,-0.017578,0.983398,24.441459,0.244141,0.549316,0.305176,38.378904,15.820312,62.109372
2015-11-12T15:45:00.6100000,-0.001465,-0.016602,0.980469,24.438464,0.244141,0.549316,0.305176,38.378904,15.820312,62.109372
2015-11-12T15:45:00.6200000,-0.00293,-0.015625,0.983398,24.435469,0.244141,0.549316,0.366211,38.378904,15.820312,62.109372
2015-11-12T15:45:00.6300000,-0.003906,-0.016602,0.984375,24.426483,0.244141,0.549316,0.244141,37.499998,16.699218,60.937497
2015-11-12T15:45:00.6400000,-0.000488,-0.014648,0.984375,24.423488,0.244141,0.549316,0.305176,37.499998,16.699218,60.937497
2015-11-12T15:45:00.6500000,0,-0.016602,0.98584,24.444454,0.244141,0.549316,0.305176,37.499998,16.699218,60.937497
2015-11-12T15:45:00.6600000,-0.003906,-0.01416,0.980957,24.45344,0.244141,0.610352,0.244141,37.499998,16.699218,60.937497
2015-11-12T15:45:00.6700000,-0.000488,-0.01416,0.98291,24.438464,0.244141,0.610352,0.244141,37.499998,16.699218,60.937497
2015-11-12T15:45:00.6800000,-0.00293,-0.016602,0.983887,24.438464,0.244141,0.549316,0.305176,37.499998,16.699218,60.937497
2015-11-12T15:45:00.6900000,-0.004395,-0.016602,0.98291,24.441459,0.12207,0.549316,0.244141,37.499998,16.699218,60.937497
2015-11-12T15:45:00.7000000,-0.000977,-0.015137,0.982422,24.45344,0.12207,0.610352,0.366211,37.499998,16.699218,60.937497
2015-11-12T15:45:00.7100000,-0.001953,-0.016602,0.980957,24.45344,0.12207,0.610352,0.244141,37.499998,16.699218,60.937497
2015-11-12T15:45:00.7200000,-0.003418,-0.016113,0.983887,24.456435,0.244141,0.610352,0.366211,37.499998,16.699218,60.937497
2015-11-12T15:45:00.7300000,-0.003418,-0.015137,0.984375,24.456435,0.244141,0.610352,0.366211,37.499998,16.699218,60.937497
2015-11-12T15:45:00.7400000,-0.001465,-0.016113,0.985352,24.45943,0.183105,0.610352,0.366211,37.499998,16.699218,60.937497
2015-11-12T15:45:00.7500000,-0.003906,-0.018066,0.984863,24.45344,0.244141,0.610352,0.305176,37.499998,16.699218,60.937497
2015-11-12T15:45:00.7600000,-0.000977,-0.01709,0.986816,24.441459,0.244141,0.549316,0.366211,38.671873,16.992187,61.230466
2015-11-12T15:45:00.7700000,-0.001953,-0.01709,0.984375,24.468416,0.244141,0.610352,0.366211,38.671873,16.992187,61.230466
2015-11-12T15:45:00.7800000,-0.002441,-0.016113,0.984375,24.45344,0.183105,0.549316,0.366211,38.671873,16.992187,61.230466
2015-11-12T15:45:00.7900000,0.000488,-0.015137,0.981934,24.456435,0.183105,0.549316,0.366211,38.671873,16.992187,61.230466
2015-11-12T15:45:00.8000000,-0.00293,-0.01709,0.98291,24.44745,0.183105,0.610352,0.305176,38.671873,16.992187,61.230466
2015-11-12T15:45:00.8100000,-0.001953,-0.015625,0.984375,24.45943,0.12207,0.549316,0.366211,38.671873,16.992187,61.230466
2015-11-12T15:45:00.8200000,-0.00293,-0.016113,0.983887,24.465421,0.183105,0.549316,0.366211,38.671873,16.992187,61.230466
2015-11-12T15:45:00.8300000,-0.003906,-0.016113,0.979004,24.474406,0.244141,0.549316,0.244141,38.671873,16.992187,61.230466
2015-11-12T15:45:00.8400000,-0.004395,-0.016602,0.981934,24.465421,0.244141,0.549316,0.305176,38.671873,16.992187,61.230466
2015-11-12T15:45:00.8500000,-0.001953,-0.015625,0.983398,24.468416,0.244141,0.549316,0.305176,38.671873,16.992187,61.230466
2015-11-12T15:45:00.8600000,-0.002441,-0.018555,0.979492,24.483392,0.12207,0.549316,0.366211,38.671873,16.992187,61.230466
2015-11-12T15:45:00.8700000,0,-0.016602,0.983887,24.474406,0.183105,0.610352,0.305176,38.671873,16.992187,61.230466
2015-11-12T15:45:00.8800000,-0.004395,-0.014648,0.984375,24.468416,0.305176,0.549316,0.183105,39.257811,17.578124,61.230466
2015-11-12T15:45:00.8900000,-0.000977,-0.016602,0.984375,24.468416,0.183105,0.549316,0.366211,39.257811,17.578124,61.230466
2015-11-12T15:45:00.9000000,-0.00293,-0.016602,0.981934,24.465421,0.183105,0.549316,0.366211,39.257811,17.578124,61.230466
2015-11-12T15:45:00.9100000,-0.002441,-0.015137,0.983887,24.483392,0.244141,0.549316,0.244141,39.257811,17.578124,61.230466
2015-11-12T15:45:00.9200000,-0.001953,-0.013672,0.983887,24.483392,0.244141,0.549316,0.366211,39.257811,17.578124,61.230466
2015-11-12T15:45:00.9300000,-0.001953,-0.013672,0.983398,24.474406,0.183105,0.610352,0.366211,39.257811,17.578124,61.230466
2015-11-12T15:45:00.9400000,-0.001465,-0.015137,0.981445,24.486387,0.244141,0.549316,0.305176,39.257811,17.578124,61.230466
2015-11-12T15:45:00.9500000,-0.00293,-0.016113,0.983398,24.504358,0.244141,0.549316,0.366211,39.257811,17.578124,61.230466
2015-11-12T15:45:00.9600000,-0.002441,-0.016602,0.982422,24.516339,0.244141,0.549316,0.427246,39.257811,17.578124,61.230466
2015-11-12T15:45:00.9700000,-0.00293,-0.016602,0.983887,24.519334,0.244141,0.488281,0.305176,39.257811,17.578124,61.230466
2015-11-12T15:45:00.9800000,-0.002441,-0.016113,0.984375,24.495373,0.244141,0.549316,0.305176,39.257811,17.578124,61.230466
2015-11-12T15:45:00.9900000,-0.001953,-0.015625,0.981445,24.513344,0.183105,0.549316,0.305176,39.257811,17.578124,61.230466
2015-11-12T15:45:01.0000000,0.001465,-0.013184,0.984863,24.537305,0.244141,0.488281,0.366211,39.257811,17.578124,61.230466
2015-11-12T15:45:01.0100000,-0.002441,-0.013184,0.984375,24.516339,0.244141,0.549316,0.305176,39.257811,17.578124,62.695309
2015-11-12T15:45:01.0200000,-0.003418,-0.016602,0.98584,24.501363,0.183105,0.610352,0.366211,39.257811,17.578124,62.695309
2015-11-12T15:45:01.0300000,-0.003906,-0.01416,0.98291,24.501363,0.244141,0.549316,0.305176,39.257811,17.578124,62.695309
2015-11-12T15:45:01.0400000,-0.002441,-0.015137,0.98584,24.528319,0.12207,0.549316,0.305176,39.257811,17.578124,62.695309
2015-11-12T15:45:01.0500000,-0.002441,-0.016602,0.98291,24.501363,0.183105,0.549316,0.305176,39.257811,17.578124,62.695309
2015-11-12T15:45:01.0600000,-0.001953,-0.014648,0.984375,24.519334,0.12207,0.610352,0.305176,39.257811,17.578124,62.695309
2015-11-12T15:45:01.0700000,-0.001465,-0.017578,0.98291,24.522329,0.183105,0.610352,0.366211,39.257811,17.578124,62.695309
2015-11-12T15:45:01.0800000,-0.000977,-0.016602,0.982422,24.504358,0.244141,0.610352,0.305176,39.257811,17.578124,62.695309
2015-11-12T15:45:01.0900000,-0.00293,-0.015625,0.982422,24.516339,0.244141,0.549316,0.244141,39.257811,17.578124,62.695309
2015-11-12T15:45:01.1000000,-0.002441,-0.016113,0.983887,24.537305,0.305176,0.671387,0.366211,39.257811,17.578124,62.695309
2015-11-12T15:45:01.1100000,-0.003418,-0.01709,0.986328,24.516339,0.305176,0.610352,0.366211,39.257811,17.578124,62.695309
2015-11-12T15:45:01.1200000,-0.001465,-0.015137,0.985352,24.510348,0.244141,0.549316,0.366211,39.257811,17.578124,62.695309
2015-11-12T15:45:01.1300000,-0.001953,-0.015137,0.986816,24.528319,0.244141,0.549316,0.305176,38.23242,17.138671,62.255856
2015-11-12T15:45:01.1400000,-0.000977,-0.014648,0.986328,24.528319,0.244141,0.671387,0.366211,38.23242,17.138671,62.255856
2015-11-12T15:45:01.1500000,-0.00293,-0.015137,0.987305,24.531315,0.305176,0.610352,0.305176,38.23242,17.138671,62.255856
2015-11-12T15:45:01.1600000,-0.002441,-0.017578,0.98291,24.519334,0.183105,0.549316,0.244141,38.23242,17.138671,62.255856
2015-11-12T15:45:01.1700000,-0.000488,-0.015137,0.984375,24.507353,0.183105,0.549316,0.366211,38.23242,17.138671,62.255856
2015-11-12T15:45:01.1800000,-0.00293,-0.016602,0.98584,24.528319,0.244141,0.549316,0.305176,38.23242,17.138671,62.255856
2015-11-12T15:45:01.1900000,-0.004395,-0.015625,0.981934,24.5403,0.305176,0.549316,0.305176,38.23242,17.138671,62.255856
2015-11-12T15:45:01.2000000,-0.000977,-0.016602,0.982422,24.531315,0.244141,0.610352,0.427246,38.23242,17.138671,62.255856
2015-11-12T15:45:01.2100000,-0.001953,-0.015137,0.981934,24.519334,0.183105,0.610352,0.488281,38.23242,17.138671,62.255856
2015-11-12T15:45:01.2200000,-0.002441,-0.015625,0.980957,24.528319,0.183105,0.549316,0.366211,38.23242,17.138671,62.255856
2015-11-12T15:45:01.2300000,-0.001953,-0.014648,0.983887,24.525324,0.244141,0.549316,0.366211,38.23242,17.138671,62.255856
2015-11-12T15:45:01.2400000,-0.001953,-0.015625,0.984863,24.546291,0.244141,0.610352,0.366211,38.23242,17.138671,62.255856
2015-11-12T15:45:01.2500000,-0.001465,-0.016602,0.97998,24.555276,0.305176,0.671387,0.305176,38.23242,17.138671,62.255856
2015-11-12T15:45:01.2600000,-0.001465,-0.015625,0.980957,24.53431,0.183105,0.671387,0.305176,38.525389,18.017577,61.669919
2015-11-12T15:45:01.2700000,-0.000977,-0.015137,0.981445,24.549286,0.244141,0.671387,0.305176,38.525389,18.017577,61.669919
2015-11-12T15:45:01.2800000,-0.003418,-0.015137,0.983398,24.53431,0.244141,0.549316,0.305176,38.525389,18.017577,61.669919
2015-11-12T15:45:01.2900000,-0.001465,-0.014648,0.98291,24.561266,0.183105,0.549316,0.366211,38.525389,18.017577,61.669919
2015-11-12T15:45:01.3000000,-0.001953,-0.01709,0.984375,24.543295,0.244141,0.488281,0.305176,38.525389,18.017577,61.669919
2015-11-12T15:45:01.3100000,-0.002441,-0.015625,0.981445,24.543295,0.244141,0.549316,0.305176,38.525389,18.017577,61.669919
2015-11-12T15:45:01.3200000,-0.000488,-0.016602,0.983887,24.555276,0.244141,0.488281,0.183105,38.525389,18.017577,61.669919
2015-11-12T15:45:01.3300000,-0.000977,-0.016113,0.981934,24.555276,0.183105,0.549316,0.244141,38.525389,18.017577,61.669919
2015-11-12T15:45:01.3400000,-0.000977,-0.015625,0.97998,24.543295,0.244141,0.549316,0.244141,38.525389,18.017577,61.669919
2015-11-12T15:45:01.3500000,-0.00293,-0.016602,0.980957,24.53431,0.244141,0.427246,0.366211,38.525389,18.017577,61.669919
2015-11-12T15:45:01.3600000,-0.002441,-0.015625,0.984375,24.537305,0.183105,0.549316,0.244141,38.525389,18.017577,61.669919
2015-11-12T15:45:01.3700000,-0.003418,-0.017578,0.983887,24.537305,0.244141,0.549316,0.305176,38.525389,18.017577,61.669919
2015-11-12T15:45:01.3800000,-0.003418,-0.016113,0.985352,24.531315,0.366211,0.549316,0.305176,39.843748,17.578124,61.816403
2015-11-12T15:45:01.3900000,-0.001953,-0.016602,0.983398,24.555276,0.244141,0.549316,0.366211,39.843748,17.578124,61.816403
2015-11-12T15:45:01.4000000,-0.002441,-0.01709,0.985352,24.555276,0.12207,0.549316,0.305176,39.843748,17.578124,61.816403
2015-11-12T15:45:01.4100000,-0.000977,-0.016113,0.984863,24.567257,0.305176,0.549316,0.244141,39.843748,17.578124,61.816403
2015-11-12T15:45:01.4200000,-0.000977,-0.016113,0.983887,24.555276,0.183105,0.488281,0.244141,39.843748,17.578124,61.816403
2015-11-12T15:45:01.4300000,-0.003418,-0.01709,0.984375,24.549286,0.244141,0.549316,0.305176,39.843748,17.578124,61.816403
2015-11-12T15:45:01.4400000,-0.003906,-0.016602,0.983398,24.53431,0.244141,0.549316,0.305176,39.843748,17.578124,61.816403
2015-11-12T15:45:01.4500000,-0.00293,-0.015625,0.982422,24.555276,0.183105,0.488281,0.305176,39.843748,17.578124,61.816403
2015-11-12T15:45:01.4600000,-0.00293,-0.01416,0.986328,24.561266,0.305176,0.671387,0.366211,39.843748,17.578124,61.816403
2015-11-12T15:45:01.4700000,-0.000977,-0.015137,0.984375,24.555276,0.183105,0.671387,0.427246,39.843748,17.578124,61.816403
2015-11-12T15:45:01.4800000,-0.002441,-0.015625,0.983398,24.543295,0.244141,0.549316,0.366211,39.843748,17.578124,61.816403
2015-11-12T15:45:01.4900000,-0.004395,-0.016113,0.984375,24.555276,0.244141,0.549316,0.305176,39.843748,17.578124,61.816403
2015-11-12T15:45:01.5000000,-0.000977,-0.01709,0.983887,24.549286,0.244141,0.549316,0.244141,39.843748,17.578124,61.816403
2015-11-12T15:45:01.5100000,-0.001953,-0.015137,0.986816,24.561266,0.305176,0.549316,0.366211,38.378904,18.164062,61.523434
2015-11-12T15:45:01.5200000,-0.003906,-0.018555,0.98584,24.564262,0.305176,0.549316,0.305176,38.378904,18.164062,61.523434
2015-11-12T15:45:01.5300000,-0.000977,-0.018066,0.984375,24.558271,0.183105,0.549316,0.244141,38.378904,18.164062,61.523434
2015-11-12T15:45:01.5400000,-0.002441,-0.015137,0.984375,24.552281,0.183105,0.610352,0.305176,38.378904,18.164062,61.523434
2015-11-12T15:45:01.5500000,-0.002441,-0.01709,0.980957,24.579237,0.305176,0.610352,0.305176,38.378904,18.164062,61.523434
2015-11-12T15:45:01.5600000,-0.001465,-0.016602,0.98291,24.573247,0.305176,0.549316,0.366211,38.378904,18.164062,61.523434
2015-11-12T15:45:01.5700000,-0.001953,-0.015137,0.984863,24.564262,0.305176,0.549316,0.305176,38.378904,18.164062,61.523434
2015-11-12T15:45:01.5800000,-0.002441,-0.014648,0.984863,24.570252,0.305176,0.549316,0.366211,38.378904,18.164062,61.523434
2015-11-12T15:45:01.5900000,-0.001953,-0.016602,0.983398,24.567257,0.244141,0.549316,0.305176,38.378904,18.164062,61.523434
2015-11-12T15:45:01.6000000,0.000488,-0.015625,0.981445,24.582233,0.244141,0.610352,0.366211,38.378904,18.164062,61.523434
2015-11-12T15:45:01.6100000,-0.001465,-0.016113,0.98584,24.573247,0.244141,0.610352,0.366211,38.378904,18.164062,61.523434
2015-11-12T15:45:01.6200000,-0.001465,-0.018066,0.981445,24.570252,0.305176,0.610352,0.305176,38.378904,18.164062,61.523434
2015-11-12T15:45:01.6300000,-0.002441,-0.016113,0.984375,24.582233,0.244141,0.610352,0.244141,38.23242,16.845702,61.37695
2015-11-12T15:45:01.6400000,-0.001465,-0.015625,0.984863,24.588223,0.183105,0.549316,0.244141,38.23242,16.845702,61.37695
2015-11-12T15:45:01.6500000,-0.00293,-0.01709,0.984863,24.576242,0.244141,0.549316,0.305176,38.23242,16.845702,61.37695
2015-11-12T15:45:01.6600000,-0.004395,-0.016602,0.983398,24.567257,0.244141,0.671387,0.305176,38.23242,16.845702,61.37695
2015-11-12T15:45:01.6700000,-0.001465,-0.015137,0.98291,24.567257,0.244141,0.610352,0.305176,38.23242,16.845702,61.37695
2015-11-12T15:45:01.6800000,-0.001953,-0.016602,0.984375,24.573247,0.244141,0.610352,0.366211,38.23242,16.845702,61.37695
2015-11-12T15:45:01.6900000,-0.002441,-0.018066,0.98584,24.594213,0.244141,0.549316,0.305176,38.23242,16.845702,61.37695
2015-11-12T15:45:01.7000000,-0.000977,-0.017578,0.98291,24.579237,0.244141,0.549316,0.305176,38.23242,16.845702,61.37695
2015-11-12T15:45:01.7100000,-0.002441,-0.014648,0.985352,24.588223,0.183105,0.549316,0.305176,38.23242,16.845702,61.37695
2015-11-12T15:45:01.7200000,-0.001953,-0.015625,0.983398,24.567257,0.183105,0.549316,0.305176,38.23242,16.845702,61.37695
2015-11-12T15:45:01.7300000,-0.003906,-0.016113,0.982422,24.588223,0.183105,0.488281,0.305176,38.23242,16.845702,61.37695
2015-11-12T15:45:01.7400000,-0.003418,-0.014648,0.982422,24.573247,0.244141,0.610352,0.366211,38.23242,16.845702,61.37695
2015-11-12T15:45:01.7500000,-0.003418,-0.015625,0.984863,24.582233,0.183105,0.610352,0.366211,38.23242,16.845702,61.37695
2015-11-12T15:45:01.7600000,-0.001465,-0.017578,0.98584,24.588223,0.244141,0.610352,0.305176,38.378904,18.749999,60.937497
2015-11-12T15:45:01.7700000,-0.000977,-0.018555,0.987305,24.582233,0.305176,0.549316,0.244141,38.378904,18.749999,60.937497
2015-11-12T15:45:01.7800000,-0.001465,-0.015137,0.984863,24.561266,0.244141,0.549316,0.366211,38.378904,18.749999,60.937497
2015-11-12T15:45:01.7900000,-0.002441,-0.017578,0.983887,24.576242,0.183105,0.549316,0.305176,38.378904,18.749999,60.937497
2015-11-12T15:45:01.8000000,-0.001953,-0.015137,0.985352,24.591218,0.244141,0.549316,0.366211,38.378904,18.749999,60.937497
2015-11-12T15:45:01.8100000,-0.003906,-0.016602,0.982422,24.597209,0.183105,0.549316,0.366211,38.378904,18.749999,60.937497
2015-11-12T15:45:01.8200000,-0.00293,-0.018555,0.980957,24.594213,0.244141,0.610352,0.366211,38.378904,18.749999,60.937497
2015-11-12T15:45:01.8300000,-0.002441,-0.016602,0.982422,24.573247,0.244141,0.671387,0.305176,38.378904,18.749999,60.937497
2015-11-12T15:45:01.8400000,-0.001953,-0.015137,0.984375,24.579237,0.244141,0.610352,0.305176,38.378904,18.749999,60.937497
2015-11-12T15:45:01.8500000,-0.001953,-0.01709,0.980469,24.585228,0.244141,0.549316,0.305176,38.378904,18.749999,60.937497
2015-11-12T15:45:01.8600000,-0.003418,-0.016602,0.98291,24.585228,0.244141,0.549316,0.305176,38.378904,18.749999,60.937497
2015-11-12T15:45:01.8700000,0,-0.01709,0.984863,24.582233,0.305176,0.610352,0.305176,38.378904,18.749999,60.937497
2015-11-12T15:45:01.8800000,0,-0.015625,0.98584,24.564262,0.244141,0.549316,0.305176,37.792967,16.992187,62.109372
2015-11-12T15:45:01.8900000,-0.001465,-0.017578,0.987793,24.585228,0.244141,0.610352,0.305176,37.792967,16.992187,62.109372
2015-11-12T15:45:01.9000000,-0.002441,-0.01709,0.983398,24.582233,0.183105,0.610352,0.366211,37.792967,16.992187,62.109372
2015-11-12T15:45:01.9100000,-0.001465,-0.015625,0.983398,24.579237,0.183105,0.488281,0.305176,37.792967,16.992187,62.109372
2015-11-12T15:45:01.9200000,-0.00293,-0.017578,0.98291,24.597209,0.244141,0.549316,0.305176,37.792967,16.992187,62.109372
2015-11-12T15:45:01.9300000,-0.001465,-0.015625,0.984375,24.594213,0.244141,0.610352,0.305176,37.792967,16.992187,62.109372
2015-11-12T15:45:01.9400000,-0.00293,-0.016113,0.984375,24.594213,0.183105,0.549316,0.366211,37.792967,16.992187,62.109372
2015-11-12T15:45:01.9500000,-0.001465,-0.014648,0.98291,24.594213,0.183105,0.610352,0.305176,37.792967,16.992187,62.109372
2015-11-12T15:45:01.9600000,-0.001465,-0.017578,0.983398,24.579237,0.244141,0.610352,0.366211,37.792967,16.992187,62.109372
2015-11-12T15:45:01.9700000,-0.000977,-0.015625,0.98291,24.585228,0.244141,0.549316,0.366211,37.792967,16.992187,62.109372
2015-11-12T15:45:01.9800000,-0.001465,-0.016113,0.982422,24.582233,0.244141,0.488281,0.305176,37.792967,16.992187,62.109372
2015-11-12T15:45:01.9900000,-0.002441,-0.017578,0.98291,24.603199,0.183105,0.549316,0.305176,37.792967,16.992187,62.109372
2015-11-12T15:45:02.0000000,-0.003418,-0.01416,0.984863,24.597209,0.244141,0.549316,0.366211,37.792967,16.992187,62.109372
2015-11-12T15:45:02.0100000,-0.000977,-0.018066,0.985352,24.61518,0.183105,0.488281,0.366211,38.085936,17.578124,60.937497
2015-11-12T15:45:02.0200000,-0.00293,-0.016113,0.98584,24.606194,0.183105,0.549316,0.305176,38.085936,17.578124,60.937497
2015-11-12T15:45:02.0300000,-0.001953,-0.015137,0.985352,24.606194,0.244141,0.549316,0.305176,38.085936,17.578124,60.937497
2015-11-12T15:45:02.0400000,-0.002441,-0.016113,0.984863,24.594213,0.244141,0.610352,0.366211,38.085936,17.578124,60.937497
2015-11-12T15:45:02.0500000,-0.001953,-0.017578,0.98584,24.606194,0.244141,0.549316,0.366211,38.085936,17.578124,60.937497
2015-11-12T15:45:02.0600000,-0.000977,-0.016602,0.98291,24.618175,0.183105,0.549316,0.244141,38.085936,17.578124,60.937497
2015-11-12T15:45:02.0700000,-0.000488,-0.015625,0.983887,24.609189,0.12207,0.488281,0.305176,38.085936,17.578124,60.937497
2015-11-12T15:45:02.0800000,-0.000977,-0.015137,0.980469,24.612184,0.183105,0.610352,0.305176,38.085936,17.578124,60.937497
2015-11-12T15:45:02.0900000,-0.001953,-0.016113,0.98291,24.612184,0.183105,0.610352,0.244141,38.085936,17.578124,60.937497
2015-11-12T15:45:02.1000000,-0.003906,-0.015625,0.983887,24.636146,0.12207,0.610352,0.305176,38.085936,17.578124,60.937497
2015-11-12T15:45:02.1100000,-0.002441,-0.01416,0.982422,24.636146,0.183105,0.488281,0.305176,38.085936,17.578124,60.937497
2015-11-12T15:45:02.1200000,-0.002441,-0.016113,0.981934,24.633151,0.12207,0.549316,0.305176,38.085936,17.578124,60.937497
2015-11-12T15:45:02.1300000,-0.000977,-0.013184,0.982422,24.648127,0.183105,0.610352,0.366211,38.085936,17.578124,60.937497
2015-11-12T15:45:02.1400000,-0.000488,-0.016113,0.987305,24.62117,0.183105,0.549316,0.305176,39.111326,17.138671,62.255856
2015-11-12T15:45:02.1500000,-0.002441,-0.01709,0.983398,24.62117,0.12207,0.671387,0.305176,39.111326,17.138671,62.255856
2015-11-12T15:45:02.1600000,-0.000977,-0.013672,0.984863,24.62117,0.183105,0.549316,0.244141,39.111326,17.138671,62.255856
2015-11-12T15:45:02.1700000,-0.002441,-0.016602,0.984863,24.618175,0.12207,0.610352,0.305176,39.111326,17.138671,62.255856
2015-11-12T15:45:02.1800000,0,-0.015137,0.982422,24.609189,0.244141,0.549316,0.305176,39.111326,17.138671,62.255856
2015-11-12T15:45:02.1900000,-0.00293,-0.015137,0.981934,24.636146,0.244141,0.488281,0.244141,39.111326,17.138671,62.255856
2015-11-12T15:45:02.2000000,-0.000488,-0.015625,0.984375,24.639141,0.183105,0.610352,0.305176,39.111326,17.138671,62.255856
2015-11-12T15:45:02.2100000,-0.002441,-0.017578,0.98291,24.639141,0.244141,0.610352,0.366211,39.111326,17.138671,62.255856
2015-11-12T15:45:02.2200000,-0.003418,-0.015625,0.98584,24.612184,0.183105,0.549316,0.427246,39.111326,17.138671,62.255856
2015-11-12T15:45:02.2300000,-0.001465,-0.015625,0.983887,24.624165,0.244141,0.610352,0.305176,39.111326,17.138671,62.255856
2015-11-12T15:45:02.2400000,-0.001465,-0.016602,0.983887,24.618175,0.244141,0.610352,0.305176,39.111326,17.138671,62.255856
2015-11-12T15:45:02.2500000,-0.002441,-0.016113,0.983398,24.630156,0.244141,0.610352,0.244141,39.111326,17.138671,62.255856
2015-11-12T15:45:02.2600000,-0.002441,-0.01709,0.982422,24.636146,0.183105,0.488281,0.305176,39.257811,18.45703,62.695309
2015-11-12T15:45:02.2700000,0,-0.01709,0.983398,24.603199,0.244141,0.610352,0.305176,39.257811,18.45703,62.695309
2015-11-12T15:45:02.2800000,-0.001953,-0.014648,0.985352,24.62716,0.305176,0.549316,0.305176,39.257811,18.45703,62.695309
2015-11-12T15:45:02.2900000,0,-0.01416,0.984863,24.636146,0.244141,0.488281,0.244141,39.257811,18.45703,62.695309
2015-11-12T15:45:02.3000000,-0.002441,-0.016602,0.984375,24.61518,0.183105,0.549316,0.183105,39.257811,18.45703,62.695309
2015-11-12T15:45:02.3100000,-0.001953,-0.014648,0.983398,24.636146,0.244141,0.610352,0.305176,39.257811,18.45703,62.695309
2015-11-12T15:45:02.3200000,-0.003906,-0.018555,0.98291,24.618175,0.244141,0.610352,0.244141,39.257811,18.45703,62.695309
2015-11-12T15:45:02.3300000,-0.003906,-0.016113,0.985352,24.639141,0.244141,0.549316,0.305176,39.257811,18.45703,62.695309
2015-11-12T15:45:02.3400000,0.000488,-0.016113,0.983887,24.61518,0.244141,0.549316,0.305176,39.257811,18.45703,62.695309
2015-11-12T15:45:02.3500000,-0.000977,-0.016113,0.985352,24.62716,0.244141,0.610352,0.244141,39.257811,18.45703,62.695309
2015-11-12T15:45:02.3600000,-0.000488,-0.015137,0.98291,24.639141,0.244141,0.488281,0.305176,39.257811,18.45703,62.695309
2015-11-12T15:45:02.3700000,-0.002441,-0.014648,0.981934,24.606194,0.183105,0.610352,0.305176,39.257811,18.45703,62.695309
2015-11-12T15:45:02.3800000,-0.00293,-0.018066,0.983398,24.630156,0.244141,0.610352,0.427246,39.257811,18.45703,62.695309
2015-11-12T15:45:02.3900000,-0.001465,-0.016113,0.98291,24.633151,0.183105,0.549316,0.244141,39.990232,17.43164,60.791013
2015-11-12T15:45:02.4000000,-0.002441,-0.017578,0.983398,24.639141,0.244141,0.549316,0.305176,39.990232,17.43164,60.791013
2015-11-12T15:45:02.4100000,-0.001953,-0.016602,0.984375,24.633151,0.305176,0.610352,0.305176,39.990232,17.43164,60.791013
2015-11-12T15:45:02.4200000,-0.00293,-0.015625,0.987793,24.62716,0.244141,0.610352,0.244141,39.990232,17.43164,60.791013
2015-11-12T15:45:02.4300000,-0.00293,-0.015137,0.984375,24.651122,0.183105,0.610352,0.305176,39.990232,17.43164,60.791013
2015-11-12T15:45:02.4400000,-0.00293,-0.015625,0.984375,24.62716,0.183105,0.488281,0.305176,39.990232,17.43164,60.791013
2015-11-12T15:45:02.4500000,-0.001953,-0.016602,0.984863,24.624165,0.244141,0.488281,0.305176,39.990232,17.43164,60.791013
2015-11-12T15:45:02.4600000,-0.003906,-0.018555,0.980957,24.639141,0.244141,0.488281,0.366211,39.990232,17.43164,60.791013
2015-11-12T15:45:02.4700000,-0.001953,-0.01709,0.98584,24.633151,0.244141,0.549316,0.427246,39.990232,17.43164,60.791013
2015-11-12T15:45:02.4800000,-0.001953,-0.016602,0.981445,24.633151,0.244141,0.610352,0.366211,39.990232,17.43164,60.791013
2015-11-12T15:45:02.4900000,-0.001465,-0.016602,0.984863,24.61518,0.244141,0.549316,0.305176,39.990232,17.43164,60.791013
2015-11-12T15:45:02.5000000,-0.001465,-0.015137,0.984375,24.612184,0.244141,0.488281,0.305176,39.990232,17.43164,60.791013
2015-11-12T15:45:02.5100000,-0.003418,-0.015625,0.983887,24.612184,0.183105,0.549316,0.244141,38.964842,18.749999,62.402341
2015-11-12T15:45:02.5200000,-0.003906,-0.015137,0.986816,24.630156,0.244141,0.610352,0.305176,38.964842,18.749999,62.402341
2015-11-12T15:45:02.5300000,-0.001953,-0.017578,0.986816,24.639141,0.183105,0.549316,0.366211,38.964842,18.749999,62.402341
2015-11-12T15:45:02.5400000,-0.003418,-0.017578,0.983398,24.645131,0.244141,0.610352,0.305176,38.964842,18.749999,62.402341
2015-11-12T15:45:02.5500000,-0.001465,-0.018066,0.98291,24.62716,0.244141,0.610352,0.366211,38.964842,18.749999,62.402341
2015-11-12T15:45:02.5600000,-0.000488,-0.016602,0.980469,24.636146,0.244141,0.549316,0.366211,38.964842,18.749999,62.402341
2015-11-12T15:45:02.5700000,-0.003906,-0.016602,0.98291,24.651122,0.244141,0.488281,0.366211,38.964842,18.749999,62.402341
2015-11-12T15:45:02.5800000,-0.001465,-0.016113,0.981934,24.618175,0.244141,0.488281,0.305176,38.964842,18.749999,62.402341
2015-11-12T15:45:02.5900000,-0.000977,-0.015137,0.97998,24.633151,0.244141,0.488281,0.305176,38.964842,18.749999,62.402341
2015-11-12T15:45:02.6000000,-0.001953,-0.016602,0.984375,24.642136,0.244141,0.549316,0.244141,38.964842,18.749999,62.402341
2015-11-12T15:45:02.6100000,-0.00293,-0.017578,0.986328,24.654117,0.183105,0.549316,0.183105,38.964842,18.749999,62.402341
2015-11-12T15:45:02.6200000,-0.00293,-0.016602,0.983398,24.648127,0.244141,0.610352,0.305176,38.964842,18.749999,62.402341
2015-11-12T15:45:02.6300000,-0.000977,-0.015625,0.983887,24.624165,0.244141,0.610352,0.305176,38.964842,18.749999,62.402341
2015-11-12T15:45:02.6400000,-0.003418,-0.016602,0.987305,24.62117,0.244141,0.610352,0.366211,37.939451,16.845702,61.37695
2015-11-12T15:45:02.6500000,-0.003906,-0.015625,0.986816,24.624165,0.183105,0.610352,0.366211,37.939451,16.845702,61.37695
2015-11-12T15:45:02.6600000,-0.002441,-0.015137,0.983887,24.654117,0.244141,0.549316,0.366211,37.939451,16.845702,61.37695
2015-11-12T15:45:02.6700000,-0.000488,-0.01709,0.98291,24.62716,0.244141,0.549316,0.305176,37.939451,16.845702,61.37695
2015-11-12T15:45:02.6800000,-0.000488,-0.01709,0.983398,24.645131,0.244141,0.488281,0.366211,37.939451,16.845702,61.37695
2015-11-12T15:45:02.6900000,-0.000488,-0.016113,0.979492,24.636146,0.183105,0.549316,0.305176,37.939451,16.845702,61.37695
2015-11-12T15:45:02.7000000,-0.000977,-0.015625,0.983398,24.639141,0.12207,0.488281,0.244141,37.939451,16.845702,61.37695
2015-11-12T15:45:02.7100000,-0.00293,-0.016602,0.980957,24.642136,0.183105,0.488281,0.244141,37.939451,16.845702,61.37695
2015-11-12T15:45:02.7200000,-0.002441,-0.01709,0.982422,24.624165,0.244141,0.488281,0.244141,37.939451,16.845702,61.37695
2015-11-12T15:45:02.7300000,-0.001465,-0.016113,0.98291,24.636146,0.183105,0.549316,0.305176,37.939451,16.845702,61.37695
2015-11-12T15:45:02.7400000,-0.001465,-0.017578,0.982422,24.636146,0.244141,0.488281,0.305176,37.939451,16.845702,61.37695
2015-11-12T15:45:02.7500000,-0.002441,-0.016113,0.983887,24.633151,0.183105,0.610352,0.305176,37.939451,16.845702,61.37695
2015-11-12T15:45:02.7600000,-0.001465,-0.014648,0.985352,24.648127,0.183105,0.671387,0.244141,37.792967,18.45703,62.988278
2015-11-12T15:45:02.7700000,-0.002441,-0.015137,0.98291,24.642136,0.12207,0.610352,0.244141,37.792967,18.45703,62.988278
2015-11-12T15:45:02.7800000,-0.001953,-0.016113,0.980469,24.648127,0.244141,0.610352,0.305176,37.792967,18.45703,62.988278
2015-11-12T15:45:02.7900000,-0.001953,-0.015625,0.985352,24.636146,0.244141,0.610352,0.305176,37.792967,18.45703,62.988278
2015-11-12T15:45:02.8000000,-0.00293,-0.016602,0.983887,24.633151,0.183105,0.610352,0.366211,37.792967,18.45703,62.988278
2015-11-12T15:45:02.8100000,-0.00293,-0.018555,0.982422,24.62716,0.244141,0.549316,0.305176,37.792967,18.45703,62.988278
2015-11-12T15:45:02.8200000,-0.003906,-0.014648,0.983398,24.630156,0.244141,0.549316,0.305176,37.792967,18.45703,62.988278
2015-11-12T15:45:02.8300000,-0.001953,-0.017578,0.98291,24.61518,0.244141,0.610352,0.305176,37.792967,18.45703,62.988278
2015-11-12T15:45:02.8400000,-0.001953,-0.01416,0.981445,24.633151,0.244141,0.610352,0.305176,37.792967,18.45703,62.988278
2015-11-12T15:45:02.8500000,-0.002441,-0.016113,0.985352,24.639141,0.183105,0.549316,0.305176,37.792967,18.45703,62.988278
2015-11-12T15:45:02.8600000,-0.001953,-0.015137,0.982422,24.642136,0.183105,0.488281,0.366211,37.792967,18.45703,62.988278
2015-11-12T15:45:02.8700000,-0.003418,-0.015137,0.983887,24.645131,0.183105,0.549316,0.366211,37.792967,18.45703,62.988278
2015-11-12T15:45:02.8800000,-0.001465,-0.016113,0.983398,24.651122,0.183105,0.549316,0.366211,37.792967,18.45703,62.988278
2015-11-12T15:45:02.8900000,-0.00293,-0.01709,0.983887,24.660107,0.244141,0.610352,0.366211,37.939451,17.43164,61.37695
2015-11-12T15:45:02.9000000,-0.001465,-0.016602,0.983887,24.654117,0.244141,0.610352,0.305176,37.939451,17.43164,61.37695
2015-11-12T15:45:02.9100000,-0.000488,-0.015625,0.983398,24.651122,0.244141,0.549316,0.305176,37.939451,17.43164,61.37695
2015-11-12T15:45:02.9200000,-0.002441,-0.01709,0.983398,24.651122,0.244141,0.549316,0.427246,37.939451,17.43164,61.37695
2015-11-12T15:45:02.9300000,-0.003906,-0.018066,0.982422,24.669093,0.305176,0.549316,0.305176,37.939451,17.43164,61.37695
2015-11-12T15:45:02.9400000,-0.001953,-0.016602,0.983887,24.62716,0.244141,0.610352,0.305176,37.939451,17.43164,61.37695
2015-11-12T15:45:02.9500000,-0.001953,-0.014648,0.979492,24.657112,0.244141,0.549316,0.244141,37.939451,17.43164,61.37695
2015-11-12T15:45:02.9600000,-0.001953,-0.014648,0.981934,24.657112,0.244141,0.610352,0.366211,37.939451,17.43164,61.37695
2015-11-12T15:45:02.9700000,-0.002441,-0.016602,0.983887,24.660107,0.244141,0.549316,0.305176,37.939451,17.43164,61.37695
2015-11-12T15:45:02.9800000,-0.001953,-0.016602,0.98291,24.654117,0.183105,0.549316,0.305176,37.939451,17.43164,61.37695
2015-11-12T15:45:02.9900000,-0.002441,-0.016602,0.980957,24.645131,0.244141,0.488281,0.305176,37.939451,17.43164,61.37695
2015-11-12T15:45:03.0000000,-0.000977,-0.016602,0.979004,24.669093,0.183105,0.549316,0.305176,37.939451,17.43164,61.37695
2015-11-12T15:45:03.0100000,-0.002441,-0.01709,0.981445,24.669093,0.183105,0.488281,0.183105,38.525389,17.43164,62.841794
2015-11-12T15:45:03.0200000,-0.00293,-0.016113,0.98291,24.663102,0.244141,0.488281,0.305176,38.525389,17.43164,62.841794
2015-11-12T15:45:03.0300000,-0.002441,-0.015625,0.98584,24.666098,0.244141,0.549316,0.305176,38.525389,17.43164,62.841794
2015-11-12T15:45:03.0400000,-0.00293,-0.016602,0.984375,24.675083,0.183105,0.488281,0.366211,38.525389,17.43164,62.841794
2015-11-12T15:45:03.0500000,-0.001953,-0.014648,0.983398,24.660107,0.244141,0.549316,0.305176,38.525389,17.43164,62.841794
2015-11-12T15:45:03.0600000,-0.000977,-0.01709,0.97998,24.663102,0.305176,0.549316,0.244141,38.525389,17.43164,62.841794
2015-11-12T15:45:03.0700000,-0.001465,-0.016113,0.983887,24.660107,0.244141,0.549316,0.305176,38.525389,17.43164,62.841794
2015-11-12T15:45:03.0800000,-0.000488,-0.02002,0.981445,24.639141,0.244141,0.488281,0.305176,38.525389,17.43164,62.841794
2015-11-12T15:45:03.0900000,-0.000977,-0.016113,0.980957,24.651122,0.183105,0.549316,0.366211,38.525389,17.43164,62.841794
2015-11-12T15:45:03.1000000,-0.00293,-0.01416,0.981934,24.657112,0.183105,0.549316,0.305176,38.525389,17.43164,62.841794
2015-11-12T15:45:03.1100000,-0.00293,-0.014648,0.981934,24.669093,0.183105,0.488281,0.244141,38.525389,17.43164,62.841794
2015-11-12T15:45:03.1200000,-0.002441,-0.017578,0.982422,24.663102,0.244141,0.488281,0.305176,38.525389,17.43164,62.841794
2015-11-12T15:45:03.1300000,-0.001465,-0.01416,0.98291,24.675083,0.183105,0.549316,0.305176,38.525389,17.43164,62.841794
2015-11-12T15:45:03.1400000,-0.002441,-0.016113,0.984375,24.669093,0.244141,0.549316,0.305176,37.499998,17.285155,62.109372
2015-11-12T15:45:03.1500000,-0.00293,-0.012695,0.981445,24.675083,0.244141,0.549316,0.305176,37.499998,17.285155,62.109372
2015-11-12T15:45:03.1600000,-0.003906,-0.015137,0.986328,24.678078,0.244141,0.610352,0.305176,37.499998,17.285155,62.109372
2015-11-12T15:45:03.1700000,-0.00293,-0.016602,0.985352,24.684069,0.183105,0.610352,0.305176,37.499998,17.285155,62.109372
2015-11-12T15:45:03.1800000,-0.001465,-0.01709,0.98291,24.675083,0.244141,0.549316,0.244141,37.499998,17.285155,62.109372
2015-11-12T15:45:03.1900000,-0.001465,-0.016113,0.98584,24.675083,0.244141,0.549316,0.305176,37.499998,17.285155,62.109372
2015-11-12T15:45:03.2000000,-0.002441,-0.01709,0.981934,24.675083,0.183105,0.549316,0.366211,37.499998,17.285155,62.109372
2015-11-12T15:45:03.2100000,-0.00293,-0.016602,0.983887,24.672088,0.183105,0.610352,0.244141,37.499998,17.285155,62.109372
2015-11-12T15:45:03.2200000,-0.001465,-0.013184,0.981934,24.663102,0.244141,0.610352,0.305176,37.499998,17.285155,62.109372
2015-11-12T15:45:03.2300000,-0.001953,-0.016113,0.980957,24.657112,0.244141,0.610352,0.305176,37.499998,17.285155,62.109372
2015-11-12T15:45:03.2400000,-0.001465,-0.015137,0.983887,24.669093,0.244141,0.549316,0.366211,37.499998,17.285155,62.109372
2015-11-12T15:45:03.2500000,-0.003418,-0.016113,0.984375,24.663102,0.244141,0.549316,0.305176,37.499998,17.285155,62.109372
2015-11-12T15:45:03.2600000,-0.002441,-0.015625,0.981934,24.657112,0.305176,0.671387,0.305176,37.499998,17.285155,62.109372
2015-11-12T15:45:03.2700000,-0.001465,-0.016113,0.982422,24.681074,0.183105,0.549316,0.305176,37.499998,17.285155,62.109372
2015-11-12T15:45:03.2800000,-0.000977,-0.016602,0.97998,24.660107,0.183105,0.488281,0.244141,37.499998,17.285155,62.109372
2015-11-12T15:45:03.2900000,-0.002441,-0.01709,0.980469,24.663102,0.244141,0.549316,0.305176,37.499998,17.285155,62.109372
2015-11-12T15:45:03.3000000,-0.000488,-0.016602,0.984863,24.654117,0.244141,0.610352,0.305176,37.499998,17.285155,62.109372
2015-11-12T15:45:03.3100000,-0.001953,-0.018066,0.98291,24.660107,0.183105,0.610352,0.305176,37.499998,17.285155,62.109372
2015-11-12T15:45:03.3200000,-0.002441,-0.015137,0.981934,24.666098,0.183105,0.488281,0.244141,37.499998,17.285155,62.109372
2015-11-12T15:45:03.3300000,-0.001953,-0.014648,0.981445,24.687064,0.244141,0.610352,0.366211,37.499998,17.285155,62.109372
2015-11-12T15:45:03.3400000,-0.001953,-0.014648,0.984375,24.666098,0.305176,0.549316,0.244141,37.499998,17.285155,62.109372
2015-11-12T15:45:03.3500000,-0.000977,-0.015137,0.983398,24.651122,0.244141,0.549316,0.305176,37.499998,17.285155,62.109372
2015-11-12T15:45:03.3600000,-0.003418,-0.01709,0.980957,24.654117,0.244141,0.610352,0.244141,37.499998,17.285155,62.109372
2015-11-12T15:45:03.3700000,-0.001465,-0.016113,0.98291,24.660107,0.244141,0.549316,0.244141,37.499998,17.285155,62.109372
2015-11-12T15:45:03.3800000,-0.000977,-0.016602,0.983398,24.660107,0.305176,0.610352,0.366211,37.499998,17.285155,62.109372
2015-11-12T15:45:03.3900000,-0.002441,-0.016602,0.98291,24.684069,0.244141,0.610352,0.305176,38.23242,18.017577,61.37695
2015-11-12T15:45:03.4000000,-0.00293,-0.015625,0.988281,24.693054,0.244141,0.610352,0.305176,38.23242,18.017577,61.37695
2015-11-12T15:45:03.4100000,-0.001953,-0.01709,0.983887,24.669093,0.244141,0.549316,0.366211,38.23242,18.017577,61.37695
2015-11-12T15:45:03.4200000,-0.00293,-0.016113,0.98291,24.660107,0.305176,0.549316,0.183105,38.23242,18.017577,61.37695
2015-11-12T15:45:03.4300000,-0.003418,-0.016602,0.985352,24.648127,0.244141,0.549316,0.244141,38.23242,18.017577,61.37695
2015-11-12T15:45:03.4400000,-0.002441,-0.015137,0.980957,24.657112,0.244141,0.610352,0.244141,38.23242,18.017577,61.37695
2015-11-12T15:45:03.4500000,-0.000977,-0.016602,0.983887,24.642136,0.305176,0.610352,0.305176,38.23242,18.017577,61.37695
2015-11-12T15:45:03.4600000,-0.000488,-0.016113,0.983398,24.663102,0.244141,0.549316,0.305176,38.23242,18.017577,61.37695
2015-11-12T15:45:03.4700000,-0.001465,-0.016113,0.982422,24.669093,0.244141,0.549316,0.244141,38.23242,18.017577,61.37695
2015-11-12T15:45:03.4800000,-0.000977,-0.014648,0.982422,24.660107,0.244141,0.488281,0.305176,38.23242,18.017577,61.37695
2015-11-12T15:45:03.4900000,-0.001465,-0.014648,0.984375,24.651122,0.244141,0.610352,0.305176,38.23242,18.017577,61.37695
2015-11-12T15:45:03.5000000,-0.001953,-0.015625,0.98291,24.645131,0.244141,0.549316,0.366211,38.23242,18.017577,61.37695
2015-11-12T15:45:03.5100000,-0.000977,-0.018066,0.983398,24.666098,0.244141,0.549316,0.366211,38.23242,18.017577,61.37695
2015-11-12T15:45:03.5200000,-0.001465,-0.014648,0.983887,24.672088,0.244141,0.549316,0.305176,38.23242,18.603515,61.669919
2015-11-12T15:45:03.5300000,-0.00293,-0.016602,0.982422,24.678078,0.244141,0.610352,0.366211,38.23242,18.603515,61.669919
2015-11-12T15:45:03.5400000,-0.003418,-0.016113,0.981445,24.663102,0.244141,0.610352,0.305176,38.23242,18.603515,61.669919
2015-11-12T15:45:03.5500000,-0.003418,-0.016113,0.98291,24.654117,0.244141,0.488281,0.305176,38.23242,18.603515,61.669919
2015-11-12T15:45:03.5600000,-0.001465,-0.015625,0.984375,24.654117,0.244141,0.549316,0.244141,38.23242,18.603515,61.669919
2015-11-12T15:45:03.5700000,-0.001465,-0.015625,0.983398,24.675083,0.244141,0.610352,0.244141,38.23242,18.603515,61.669919
2015-11-12T15:45:03.5800000,-0.003418,-0.013672,0.984375,24.672088,0.305176,0.549316,0.305176,38.23242,18.603515,61.669919
2015-11-12T15:45:03.5900000,-0.002441,-0.015625,0.984863,24.663102,0.244141,0.610352,0.305176,38.23242,18.603515,61.669919
2015-11-12T15:45:03.6000000,-0.002441,-0.017578,0.98291,24.669093,0.244141,0.610352,0.244141,38.23242,18.603515,61.669919
2015-11-12T15:45:03.6100000,-0.001953,-0.01709,0.983398,24.660107,0.183105,0.549316,0.305176,38.23242,18.603515,61.669919
2015-11-12T15:45:03.6200000,-0.003418,-0.01709,0.985352,24.660107,0.244141,0.488281,0.366211,38.23242,18.603515,61.669919
2015-11-12T15:45:03.6300000,-0.003418,-0.014648,0.984375,24.654117,0.183105,0.549316,0.366211,38.23242,18.603515,61.669919
2015-11-12T15:45:03.6400000,-0.001953,-0.01416,0.983398,24.675083,0.244141,0.549316,0.305176,39.257811,16.699218,61.816403
2015-11-12T15:45:03.6500000,-0.00293,-0.016113,0.98291,24.654117,0.305176,0.610352,0.305176,39.257811,16.699218,61.816403
2015-11-12T15:45:03.6600000,-0.001465,-0.016113,0.984863,24.654117,0.244141,0.549316,0.305176,39.257811,16.699218,61.816403
2015-11-12T15:45:03.6700000,-0.001465,-0.01416,0.984375,24.678078,0.305176,0.610352,0.366211,39.257811,16.699218,61.816403
2015-11-12T15:45:03.6800000,-0.003418,-0.013672,0.979004,24.675083,0.244141,0.549316,0.366211,39.257811,16.699218,61.816403
2015-11-12T15:45:03.6900000,-0.000977,-0.015137,0.980957,24.654117,0.244141,0.549316,0.183105,39.257811,16.699218,61.816403
2015-11-12T15:45:03.7000000,-0.003418,-0.015137,0.98291,24.651122,0.244141,0.610352,0.244141,39.257811,16.699218,61.816403
2015-11-12T15:45:03.7100000,-0.001465,-0.015625,0.984375,24.657112,0.244141,0.610352,0.366211,39.257811,16.699218,61.816403
2015-11-12T15:45:03.7200000,-0.001953,-0.015137,0.981445,24.660107,0.305176,0.610352,0.244141,39.257811,16.699218,61.816403
2015-11-12T15:45:03.7300000,-0.002441,-0.01709,0.979492,24.660107,0.183105,0.549316,0.244141,39.257811,16.699218,61.816403
2015-11-12T15:45:03.7400000,-0.001465,-0.01709,0.981934,24.660107,0.244141,0.549316,0.305176,39.257811,16.699218,61.816403
2015-11-12T15:45:03.7500000,-0.002441,-0.015625,0.983887,24.666098,0.305176,0.549316,0.305176,39.257811,16.699218,61.816403
2015-11-12T15:45:03.7600000,-0.002441,-0.013672,0.982422,24.657112,0.244141,0.549316,0.244141,39.257811,16.699218,61.816403
2015-11-12T15:45:03.7700000,-0.000488,-0.015625,0.987793,24.648127,0.183105,0.549316,0.244141,38.378904,15.820312,62.695309
2015-11-12T15:45:03.7800000,-0.003418,-0.015137,0.981934,24.663102,0.244141,0.549316,0.305176,38.378904,15.820312,62.695309
2015-11-12T15:45:03.7900000,-0.000488,-0.016602,0.982422,24.660107,0.244141,0.488281,0.366211,38.378904,15.820312,62.695309
2015-11-12T15:45:03.8000000,-0.000977,-0.016113,0.983887,24.651122,0.305176,0.610352,0.366211,38.378904,15.820312,62.695309
2015-11-12T15:45:03.8100000,-0.001953,-0.018066,0.984375,24.675083,0.244141,0.549316,0.305176,38.378904,15.820312,62.695309
2015-11-12T15:45:03.8200000,-0.002441,-0.01709,0.985352,24.663102,0.305176,0.610352,0.305176,38.378904,15.820312,62.695309
2015-11-12T15:45:03.8300000,-0.002441,-0.015625,0.986816,24.657112,0.183105,0.549316,0.244141,38.378904,15.820312,62.695309
2015-11-12T15:45:03.8400000,-0.001953,-0.015625,0.981934,24.675083,0.244141,0.549316,0.305176,38.378904,15.820312,62.695309
2015-11-12T15:45:03.8500000,-0.00293,-0.016602,0.983398,24.672088,0.244141,0.610352,0.305176,38.378904,15.820312,62.695309
2015-11-12T15:45:03.8600000,-0.00293,-0.016602,0.984375,24.669093,0.244141,0.610352,0.244141,38.378904,15.820312,62.695309
2015-11-12T15:45:03.8700000,-0.001465,-0.014648,0.981445,24.645131,0.244141,0.549316,0.305176,38.378904,15.820312,62.695309
2015-11-12T15:45:03.8800000,-0.001953,-0.016602,0.980957,24.666098,0.244141,0.488281,0.366211,38.378904,15.820312,62.695309
2015-11-12T15:45:03.8900000,-0.00293,-0.016113,0.983398,24.669093,0.183105,0.549316,0.305176,38.525389,17.724609,61.962888
2015-11-12T15:45:03.9000000,-0.00293,-0.016602,0.985352,24.675083,0.244141,0.610352,0.244141,38.525389,17.724609,61.962888
2015-11-12T15:45:03.9100000,-0.001953,-0.017578,0.98291,24.666098,0.244141,0.549316,0.366211,38.525389,17.724609,61.962888
2015-11-12T15:45:03.9200000,-0.001953,-0.015625,0.982422,24.669093,0.244141,0.610352,0.366211,38.525389,17.724609,61.962888
2015-11-12T15:45:03.9300000,-0.000488,-0.016602,0.981445,24.663102,0.244141,0.549316,0.305176,38.525389,17.724609,61.962888
2015-11-12T15:45:03.9400000,-0.001953,-0.016602,0.983887,24.666098,0.244141,0.488281,0.305176,38.525389,17.724609,61.962888
2015-11-12T15:45:03.9500000,-0.001953,-0.014648,0.985352,24.672088,0.244141,0.610352,0.305176,38.525389,17.724609,61.962888
2015-11-12T15:45:03.9600000,-0.002441,-0.01416,0.982422,24.675083,0.244141,0.549316,0.366211,38.525389,17.724609,61.962888
2015-11-12T15:45:03.9700000,-0.002441,-0.018555,0.983398,24.663102,0.183105,0.488281,0.305176,38.525389,17.724609,61.962888
2015-11-12T15:45:03.9800000,-0.001953,-0.015625,0.980957,24.669093,0.183105,0.549316,0.305176,38.525389,17.724609,61.962888
2015-11-12T15:45:03.9900000,-0.000488,-0.016113,0.980957,24.681074,0.183105,0.549316,0.305176,38.525389,17.724609,61.962888
2015-11-12T15:45:04.0000000,-0.001465,-0.016602,0.982422,24.666098,0.183105,0.488281,0.366211,38.525389,17.724609,61.962888
2015-11-12T15:45:04.0100000,-0.003418,-0.016113,0.98291,24.666098,0.12207,0.610352,0.427246,38.525389,17.724609,61.962888
2015-11-12T15:45:04.0200000,-0.000977,-0.015137,0.983887,24.678078,0.244141,0.549316,0.366211,38.378904,17.285155,62.988278
2015-11-12T15:45:04.0300000,-0.002441,-0.015625,0.980469,24.675083,0.244141,0.549316,0.305176,38.378904,17.285155,62.988278
2015-11-12T15:45:04.0400000,-0.001953,-0.016113,0.985352,24.693054,0.183105,0.549316,0.244141,38.378904,17.285155,62.988278
2015-11-12T15:45:04.0500000,-0.001953,-0.016602,0.98291,24.672088,0.244141,0.488281,0.244141,38.378904,17.285155,62.988278
2015-11-12T15:45:04.0600000,-0.000977,-0.016113,0.986816,24.675083,0.244141,0.488281,0.366211,38.378904,17.285155,62.988278
2015-11-12T15:45:04.0700000,-0.001953,-0.016113,0.984375,24.678078,0.183105,0.549316,0.305176,38.378904,17.285155,62.988278
2015-11-12T15:45:04.0800000,-0.001953,-0.014648,0.985352,24.675083,0.183105,0.488281,0.366211,38.378904,17.285155,62.988278
2015-11-12T15:45:04.0900000,-0.000977,-0.017578,0.983887,24.696049,0.244141,0.610352,0.366211,38.378904,17.285155,62.988278
2015-11-12T15:45:04.1000000,-0.001953,-0.018555,0.983887,24.687064,0.244141,0.549316,0.366211,38.378904,17.285155,62.988278
2015-11-12T15:45:04.1100000,-0.002441,-0.015137,0.98291,24.678078,0.183105,0.610352,0.244141,38.378904,17.285155,62.988278
2015-11-12T15:45:04.1200000,-0.001953,-0.014648,0.983887,24.684069,0.183105,0.610352,0.305176,38.378904,17.285155,62.988278
2015-11-12T15:45:04.1300000,-0.001953,-0.016602,0.982422,24.690059,0.244141,0.610352,0.244141,38.378904,17.285155,62.988278
2015-11-12T15:45:04.1400000,-0.001465,-0.015625,0.981934,24.690059,0.244141,0.610352,0.305176,38.964842,17.578124,62.109372
2015-11-12T15:45:04.1500000,-0.00293,-0.016113,0.985352,24.711025,0.183105,0.610352,0.305176,38.964842,17.578124,62.109372
2015-11-12T15:45:04.1600000,-0.00293,-0.016602,0.98291,24.70803,0.244141,0.549316,0.305176,38.964842,17.578124,62.109372
2015-11-12T15:45:04.1700000,-0.001465,-0.018555,0.983398,24.71402,0.183105,0.549316,0.305176,38.964842,17.578124,62.109372
2015-11-12T15:45:04.1800000,-0.00293,-0.016113,0.980469,24.696049,0.12207,0.610352,0.305176,38.964842,17.578124,62.109372
2015-11-12T15:45:04.1900000,-0.000977,-0.015625,0.982422,24.672088,0.183105,0.610352,0.305176,38.964842,17.578124,62.109372
2015-11-12T15:45:04.2000000,-0.001465,-0.015625,0.983398,24.693054,0.183105,0.549316,0.244141,38.964842,17.578124,62.109372
2015-11-12T15:45:04.2100000,-0.001953,-0.013672,0.981934,24.678078,0.183105,0.610352,0.366211,38.964842,17.578124,62.109372
2015-11-12T15:45:04.2200000,-0.000488,-0.014648,0.982422,24.669093,0.183105,0.549316,0.244141,38.964842,17.578124,62.109372
2015-11-12T15:45:04.2300000,-0.002441,-0.01709,0.982422,24.699045,0.244141,0.549316,0.305176,38.964842,17.578124,62.109372
2015-11-12T15:45:04.2400000,-0.002441,-0.01416,0.98584,24.693054,0.183105,0.610352,0.366211,38.964842,17.578124,62.109372
2015-11-12T15:45:04.2500000,-0.001465,-0.01416,0.985352,24.672088,0.244141,0.610352,0.366211,38.964842,17.578124,62.109372
2015-11-12T15:45:04.2600000,-0.001465,-0.015625,0.985352,24.681074,0.244141,0.549316,0.427246,38.964842,17.578124,62.109372
2015-11-12T15:45:04.2700000,-0.002441,-0.016602,0.984375,24.71402,0.305176,0.488281,0.366211,38.671873,18.45703,62.988278
2015-11-12T15:45:04.2800000,-0.003418,-0.016113,0.984375,24.70204,0.244141,0.610352,0.305176,38.671873,18.45703,62.988278
2015-11-12T15:45:04.2900000,-0.002441,-0.01709,0.984863,24.690059,0.244141,0.610352,0.305176,38.671873,18.45703,62.988278
2015-11-12T15:45:04.3000000,-0.003906,-0.018555,0.98584,24.690059,0.244141,0.549316,0.305176,38.671873,18.45703,62.988278
2015-11-12T15:45:04.3100000,-0.003418,-0.014648,0.980469,24.696049,0.244141,0.549316,0.244141,38.671873,18.45703,62.988278
2015-11-12T15:45:04.3200000,-0.000977,-0.015625,0.982422,24.696049,0.244141,0.610352,0.305176,38.671873,18.45703,62.988278
2015-11-12T15:45:04.3300000,-0.001953,-0.01416,0.98291,24.690059,0.244141,0.610352,0.305176,38.671873,18.45703,62.988278
2015-11-12T15:45:04.3400000,-0.001953,-0.015625,0.98584,24.693054,0.183105,0.549316,0.366211,38.671873,18.45703,62.988278
2015-11-12T15:45:04.3500000,-0.00293,-0.015625,0.984863,24.687064,0.244141,0.549316,0.366211,38.671873,18.45703,62.988278
2015-11-12T15:45:04.3600000,-0.003418,-0.01416,0.98291,24.687064,0.183105,0.549316,0.305176,38.671873,18.45703,62.988278
2015-11-12T15:45:04.3700000,-0.001953,-0.013672,0.981934,24.678078,0.183105,0.610352,0.305176,38.671873,18.45703,62.988278
2015-11-12T15:45:04.3800000,-0.001953,-0.015137,0.98291,24.681074,0.183105,0.549316,0.183105,38.671873,18.45703,62.988278
2015-11-12T15:45:04.3900000,-0.00293,-0.015137,0.984375,24.678078,0.244141,0.610352,0.305176,38.671873,18.749999,62.109372
2015-11-12T15:45:04.4000000,-0.002441,-0.015625,0.985352,24.696049,0.244141,0.610352,0.366211,38.671873,18.749999,62.109372
2015-11-12T15:45:04.4100000,-0.003418,-0.016113,0.984375,24.681074,0.183105,0.610352,0.366211,38.671873,18.749999,62.109372
2015-11-12T15:45:04.4200000,-0.004395,-0.015625,0.984375,24.684069,0.183105,0.610352,0.427246,38.671873,18.749999,62.109372
2015-11-12T15:45:04.4300000,-0.00293,-0.015625,0.981934,24.687064,0.244141,0.610352,0.305176,38.671873,18.749999,62.109372
2015-11-12T15:45:04.4400000,-0.000488,-0.014648,0.981934,24.666098,0.183105,0.610352,0.366211,38.671873,18.749999,62.109372
2015-11-12T15:45:04.4500000,-0.002441,-0.017578,0.982422,24.681074,0.244141,0.549316,0.305176,38.671873,18.749999,62.109372
2015-11-12T15:45:04.4600000,-0.001953,-0.016113,0.98291,24.696049,0.183105,0.610352,0.305176,38.671873,18.749999,62.109372
2015-11-12T15:45:04.4700000,-0.001465,-0.015625,0.983398,24.669093,0.183105,0.488281,0.366211,38.671873,18.749999,62.109372
2015-11-12T15:45:04.4800000,-0.002441,-0.016113,0.984863,24.693054,0.183105,0.610352,0.305176,38.671873,18.749999,62.109372
2015-11-12T15:45:04.4900000,-0.001953,-0.01709,0.981445,24.684069,0.183105,0.549316,0.305176,38.671873,18.749999,62.109372
2015-11-12T15:45:04.5000000,-0.00293,-0.017578,0.98291,24.699045,0.305176,0.549316,0.244141,38.671873,18.749999,62.109372
2015-11-12T15:45:04.5100000,-0.001953,-0.016113,0.984863,24.681074,0.244141,0.549316,0.244141,38.671873,18.749999,62.109372
2015-11-12T15:45:04.5200000,-0.002441,-0.015137,0.983398,24.675083,0.305176,0.610352,0.244141,39.257811,18.164062,61.230466
2015-11-12T15:45:04.5300000,-0.00293,-0.016113,0.98584,24.684069,0.244141,0.610352,0.244141,39.257811,18.164062,61.230466
2015-11-12T15:45:04.5400000,-0.000488,-0.017578,0.984863,24.70204,0.244141,0.549316,0.244141,39.257811,18.164062,61.230466
2015-11-12T15:45:04.5500000,-0.001465,-0.01709,0.985352,24.681074,0.244141,0.549316,0.183105,39.257811,18.164062,61.230466
2015-11-12T15:45:04.5600000,-0.000977,-0.015137,0.98291,24.684069,0.244141,0.549316,0.305176,39.257811,18.164062,61.230466
2015-11-12T15:45:04.5700000,-0.001953,-0.015137,0.982422,24.693054,0.305176,0.671387,0.244141,39.257811,18.164062,61.230466
2015-11-12T15:45:04.5800000,0,-0.015137,0.979492,24.687064,0.244141,0.610352,0.366211,39.257811,18.164062,61.230466
2015-11-12T15:45:04.5900000,-0.001953,-0.01416,0.984863,24.687064,0.244141,0.549316,0.244141,39.257811,18.164062,61.230466
2015-11-12T15:45:04.6000000,-0.001465,-0.015625,0.981934,24.699045,0.244141,0.610352,0.305176,39.257811,18.164062,61.230466
2015-11-12T15:45:04.6100000,-0.001465,-0.018066,0.98291,24.666098,0.183105,0.610352,0.305176,39.257811,18.164062,61.230466
2015-11-12T15:45:04.6200000,-0.003418,-0.015625,0.980469,24.666098,0.183105,0.549316,0.305176,39.257811,18.164062,61.230466
2015-11-12T15:45:04.6300000,-0.000488,-0.015137,0.981445,24.678078,0.183105,0.549316,0.305176,39.257811,18.164062,61.230466
2015-11-12T15:45:04.6400000,0,-0.016113,0.981445,24.681074,0.305176,0.549316,0.305176,39.257811,18.164062,61.230466
2015-11-12T15:45:04.6500000,-0.002441,-0.016602,0.986816,24.70204,0.305176,0.610352,0.305176,39.550779,16.11328,60.937497
2015-11-12T15:45:04.6600000,-0.002441,-0.01709,0.982422,24.717016,0.305176,0.549316,0.305176,39.550779,16.11328,60.937497
2015-11-12T15:45:04.6700000,-0.001953,-0.016113,0.98584,24.678078,0.183105,0.610352,0.305176,39.550779,16.11328,60.937497
2015-11-12T15:45:04.6800000,-0.004395,-0.015625,0.984863,24.669093,0.244141,0.610352,0.366211,39.550779,16.11328,60.937497
2015-11-12T15:45:04.6900000,-0.002441,-0.015137,0.983398,24.687064,0.244141,0.549316,0.305176,39.550779,16.11328,60.937497
2015-11-12T15:45:04.7000000,-0.002441,-0.01416,0.984863,24.675083,0.244141,0.610352,0.305176,39.550779,16.11328,60.937497
2015-11-12T15:45:04.7100000,-0.001465,-0.015137,0.983887,24.693054,0.244141,0.610352,0.305176,39.550779,16.11328,60.937497
2015-11-12T15:45:04.7200000,-0.001953,-0.016113,0.981934,24.684069,0.305176,0.549316,0.244141,39.550779,16.11328,60.937497
2015-11-12T15:45:04.7300000,-0.001953,-0.014648,0.981934,24.687064,0.244141,0.488281,0.305176,39.550779,16.11328,60.937497
2015-11-12T15:45:04.7400000,-0.001953,-0.015625,0.982422,24.663102,0.183105,0.549316,0.305176,39.550779,16.11328,60.937497
2015-11-12T15:45:04.7500000,-0.002441,-0.015625,0.984375,24.666098,0.183105,0.549316,0.305176,39.550779,16.11328,60.937497
2015-11-12T15:45:04.7600000,-0.001953,-0.015625,0.97998,24.675083,0.183105,0.549316,0.244141,39.550779,16.11328,60.937497
2015-11-12T15:45:04.7700000,-0.001953,-0.015625,0.987793,24.672088,0.244141,0.549316,0.305176,38.964842,19.335937,61.230466
2015-11-12T15:45:04.7800000,-0.001953,-0.015625,0.987793,24.684069,0.183105,0.549316,0.305176,38.964842,19.335937,61.230466
2015-11-12T15:45:04.7900000,-0.002441,-0.015137,0.985352,24.672088,0.183105,0.549316,0.244141,38.964842,19.335937,61.230466
2015-11-12T15:45:04.8000000,-0.000488,-0.016113,0.981445,24.681074,0.183105,0.549316,0.244141,38.964842,19.335937,61.230466
2015-11-12T15:45:04.8100000,-0.001953,-0.017578,0.984375,24.681074,0.244141,0.549316,0.305176,38.964842,19.335937,61.230466
2015-11-12T15:45:04.8200000,-0.001465,-0.016113,0.982422,24.666098,0.305176,0.549316,0.305176,38.964842,19.335937,61.230466
2015-11-12T15:45:04.8300000,-0.002441,-0.016602,0.984375,24.681074,0.244141,0.610352,0.244141,38.964842,19.335937,61.230466
2015-11-12T15:45:04.8400000,-0.003418,-0.016113,0.981445,24.690059,0.244141,0.610352,0.183105,38.964842,19.335937,61.230466
2015-11-12T15:45:04.8500000,-0.000488,-0.014648,0.984375,24.681074,0.244141,0.610352,0.305176,38.964842,19.335937,61.230466
2015-11-12T15:45:04.8600000,-0.001953,-0.01709,0.982422,24.690059,0.244141,0.549316,0.244141,38.964842,19.335937,61.230466
2015-11-12T15:45:04.8700000,-0.000977,-0.016113,0.98291,24.693054,0.244141,0.549316,0.305176,38.964842,19.335937,61.230466
2015-11-12T15:45:04.8800000,-0.001953,-0.013672,0.98291,24.70803,0.305176,0.549316,0.366211,38.964842,19.335937,61.230466
2015-11-12T15:45:04.8900000,-0.004883,-0.015137,0.983398,24.711025,0.305176,0.610352,0.366211,38.964842,19.335937,61.230466
2015-11-12T15:45:04.9000000,-0.000977,-0.016602,0.98291,24.696049,0.183105,0.610352,0.305176,38.085936,17.871093,62.402341
2015-11-12T15:45:04.9100000,-0.00293,-0.015625,0.983398,24.693054,0.183105,0.610352,0.305176,38.085936,17.871093,62.402341
2015-11-12T15:45:04.9200000,-0.003418,-0.01709,0.98291,24.70204,0.244141,0.610352,0.366211,38.085936,17.871093,62.402341
2015-11-12T15:45:04.9300000,-0.002441,-0.014648,0.984375,24.699045,0.244141,0.610352,0.366211,38.085936,17.871093,62.402341
2015-11-12T15:45:04.9400000,-0.001465,-0.016113,0.981934,24.687064,0.244141,0.610352,0.427246,38.085936,17.871093,62.402341
2015-11-12T15:45:04.9500000,-0.000977,-0.01709,0.97998,24.675083,0.305176,0.610352,0.305176,38.085936,17.871093,62.402341
2015-11-12T15:45:04.9600000,-0.003906,-0.01709,0.983398,24.693054,0.305176,0.610352,0.305176,38.085936,17.871093,62.402341
2015-11-12T15:45:04.9700000,-0.001465,-0.017578,0.984375,24.696049,0.244141,0.549316,0.366211,38.085936,17.871093,62.402341
2015-11-12T15:45:04.9800000,-0.00293,-0.01709,0.983887,24.693054,0.244141,0.488281,0.305176,38.085936,17.871093,62.402341
2015-11-12T15:45:04.9900000,-0.002441,-0.01709,0.980469,24.678078,0.244141,0.610352,0.305176,38.085936,17.871093,62.402341
2015-11-12T15:45:05.0000000,-0.001953,-0.017578,0.984375,24.70204,0.12207,0.549316,0.366211,38.085936,17.871093,62.402341
2015-11-12T15:45:05.0100000,-0.001465,-0.016113,0.981445,24.696049,0.183105,0.549316,0.244141,38.085936,17.871093,62.402341
2015-11-12T15:45:05.0200000,-0.003418,-0.016113,0.983398,24.690059,0.244141,0.488281,0.305176,39.111326,16.845702,61.37695
2015-11-12T15:45:05.0300000,-0.003906,-0.015137,0.98291,24.699045,0.244141,0.549316,0.305176,39.111326,16.845702,61.37695
2015-11-12T15:45:05.0400000,-0.001953,-0.014648,0.985352,24.699045,0.305176,0.549316,0.305176,39.111326,16.845702,61.37695
2015-11-12T15:45:05.0500000,-0.00293,-0.015137,0.984375,24.696049,0.183105,0.549316,0.305176,39.111326,16.845702,61.37695
2015-11-12T15:45:05.0600000,-0.001953,-0.017578,0.981934,24.696049,0.183105,0.610352,0.305176,39.111326,16.845702,61.37695
2015-11-12T15:45:05.0700000,-0.002441,-0.016113,0.983398,24.696049,0.183105,0.610352,0.366211,39.111326,16.845702,61.37695
2015-11-12T15:45:05.0800000,-0.00293,-0.017578,0.98291,24.681074,0.183105,0.549316,0.427246,39.111326,16.845702,61.37695
2015-11-12T15:45:05.0900000,-0.000977,-0.01709,0.982422,24.699045,0.244141,0.610352,0.427246,39.111326,16.845702,61.37695
2015-11-12T15:45:05.1000000,-0.002441,-0.015625,0.979004,24.70803,0.183105,0.488281,0.244141,39.111326,16.845702,61.37695
2015-11-12T15:45:05.1100000,-0.001465,-0.01709,0.981934,24.693054,0.12207,0.549316,0.366211,39.111326,16.845702,61.37695
2015-11-12T15:45:05.1200000,-0.001465,-0.01709,0.984375,24.705035,0.183105,0.549316,0.366211,39.111326,16.845702,61.37695
2015-11-12T15:45:05.1300000,-0.001953,-0.015137,0.98291,24.705035,0.244141,0.610352,0.305176,39.111326,16.845702,61.37695
2015-11-12T15:45:05.1400000,-0.001465,-0.015137,0.982422,24.71402,0.244141,0.610352,0.366211,39.111326,16.845702,61.37695
2015-11-12T15:45:05.1500000,-0.004395,-0.016113,0.984863,24.711025,0.305176,0.610352,0.366211,38.378904,17.578124,62.109372
2015-11-12T15:45:05.1600000,-0.001465,-0.01416,0.986816,24.690059,0.244141,0.549316,0.366211,38.378904,17.578124,62.109372
2015-11-12T15:45:05.1700000,-0.001465,-0.018066,0.983398,24.705035,0.244141,0.549316,0.366211,38.378904,17.578124,62.109372
2015-11-12T15:45:05.1800000,-0.00293,-0.014648,0.984375,24.70204,0.183105,0.549316,0.366211,38.378904,17.578124,62.109372
2015-11-12T15:45:05.1900000,-0.003418,-0.01709,0.984863,24.693054,0.183105,0.549316,0.244141,38.378904,17.578124,62.109372
2015-11-12T15:45:05.2000000,-0.003418,-0.015137,0.980957,24.705035,0.244141,0.488281,0.305176,38.378904,17.578124,62.109372
2015-11-12T15:45:05.2100000,-0.00293,-0.016602,0.981445,24.693054,0.183105,0.549316,0.305176,38.378904,17.578124,62.109372
2015-11-12T15:45:05.2200000,-0.002441,-0.013672,0.98291,24.687064,0.183105,0.549316,0.305176,38.378904,17.578124,62.109372
2015-11-12T15:45:05.2300000,-0.003906,-0.015625,0.981445,24.678078,0.183105,0.610352,0.305176,38.378904,17.578124,62.109372
2015-11-12T15:45:05.2400000,-0.000488,-0.016602,0.981445,24.693054,0.244141,0.610352,0.366211,38.378904,17.578124,62.109372
2015-11-12T15:45:05.2500000,-0.000977,-0.016602,0.980957,24.705035,0.244141,0.610352,0.366211,38.378904,17.578124,62.109372
2015-11-12T15:45:05.2600000,-0.000977,-0.015137,0.987793,24.705035,0.244141,0.610352,0.366211,38.378904,17.578124,62.109372
2015-11-12T15:45:05.2700000,-0.001953,-0.015137,0.984375,24.705035,0.244141,0.549316,0.366211,38.671873,17.578124,61.523434
2015-11-12T15:45:05.2800000,-0.002441,-0.017578,0.986816,24.705035,0.244141,0.488281,0.366211,38.671873,17.578124,61.523434
2015-11-12T15:45:05.2900000,-0.001953,-0.015137,0.983398,24.71402,0.305176,0.610352,0.305176,38.671873,17.578124,61.523434
2015-11-12T15:45:05.3000000,-0.002441,-0.016602,0.986816,24.696049,0.244141,0.488281,0.366211,38.671873,17.578124,61.523434
2015-11-12T15:45:05.3100000,-0.00293,-0.016602,0.982422,24.705035,0.244141,0.549316,0.305176,38.671873,17.578124,61.523434
2015-11-12T15:45:05.3200000,-0.003906,-0.015137,0.97998,24.705035,0.244141,0.610352,0.244141,38.671873,17.578124,61.523434
2015-11-12T15:45:05.3300000,-0.00293,-0.015625,0.985352,24.70204,0.244141,0.549316,0.366211,38.671873,17.578124,61.523434
2015-11-12T15:45:05.3400000,-0.001953,-0.017578,0.98291,24.699045,0.183105,0.610352,0.427246,38.671873,17.578124,61.523434
2015-11-12T15:45:05.3500000,-0.00293,-0.016113,0.981934,24.699045,0.12207,0.549316,0.305176,38.671873,17.578124,61.523434
2015-11-12T15:45:05.3600000,-0.000488,-0.016602,0.986816,24.681074,0.183105,0.549316,0.366211,38.671873,17.578124,61.523434
2015-11-12T15:45:05.3700000,-0.00293,-0.016113,0.982422,24.70803,0.305176,0.610352,0.305176,38.671873,17.578124,61.523434
2015-11-12T15:45:05.3800000,-0.005859,-0.015625,0.983398,24.693054,0.244141,0.610352,0.244141,38.671873,17.578124,61.523434
2015-11-12T15:45:05.3900000,-0.00293,-0.015625,0.987305,24.681074,0.244141,0.488281,0.244141,38.671873,17.578124,61.523434
2015-11-12T15:45:05.4000000,-0.00293,-0.016113,0.981934,24.699045,0.244141,0.610352,0.366211,38.085936,18.45703,60.937497
2015-11-12T15:45:05.4100000,-0.001953,-0.01709,0.985352,24.687064,0.183105,0.549316,0.305176,38.085936,18.45703,60.937497
2015-11-12T15:45:05.4200000,-0.003418,-0.015625,0.983398,24.70803,0.244141,0.610352,0.305176,38.085936,18.45703,60.937497
2015-11-12T15:45:05.4300000,-0.003418,-0.016602,0.987793,24.717016,0.244141,0.671387,0.244141,38.085936,18.45703,60.937497
2015-11-12T15:45:05.4400000,-0.003418,-0.015625,0.986328,24.684069,0.244141,0.610352,0.305176,38.085936,18.45703,60.937497
2015-11-12T15:45:05.4500000,-0.001465,-0.018066,0.984375,24.693054,0.244141,0.549316,0.366211,38.085936,18.45703,60.937497
2015-11-12T15:45:05.4600000,-0.001953,-0.017578,0.983398,24.687064,0.244141,0.610352,0.305176,38.085936,18.45703,60.937497
2015-11-12T15:45:05.4700000,0,-0.015625,0.982422,24.681074,0.244141,0.671387,0.305176,38.085936,18.45703,60.937497
2015-11-12T15:45:05.4800000,-0.00293,-0.016113,0.984863,24.696049,0.305176,0.610352,0.244141,38.085936,18.45703,60.937497
2015-11-12T15:45:05.4900000,-0.003418,-0.016113,0.982422,24.696049,0.183105,0.610352,0.305176,38.085936,18.45703,60.937497
2015-11-12T15:45:05.5000000,-0.00293,-0.014648,0.984863,24.696049,0.305176,0.549316,0.427246,38.085936,18.45703,60.937497
2015-11-12T15:45:05.5100000,-0.00293,-0.016602,0.984375,24.672088,0.183105,0.549316,0.366211,38.085936,18.45703,60.937497
2015-11-12T15:45:05.5200000,-0.002441,-0.01709,0.986328,24.690059,0.244141,0.549316,0.366211,38.378904,17.578124,61.523434
2015-11-12T15:45:05.5300000,-0.003418,-0.015625,0.986816,24.693054,0.244141,0.549316,0.427246,38.378904,17.578124,61.523434
2015-11-12T15:45:05.5400000,-0.001953,-0.013672,0.987793,24.681074,0.12207,0.549316,0.244141,38.378904,17.578124,61.523434
2015-11-12T15:45:05.5500000,-0.003418,-0.016113,0.986328,24.690059,0.244141,0.549316,0.244141,38.378904,17.578124,61.523434
2015-11-12T15:45:05.5600000,-0.003418,-0.016113,0.983887,24.690059,0.244141,0.610352,0.305176,38.378904,17.578124,61.523434
2015-11-12T15:45:05.5700000,-0.003418,-0.015137,0.98291,24.690059,0.244141,0.549316,0.244141,38.378904,17.578124,61.523434
2015-11-12T15:45:05.5800000,-0.001953,-0.015625,0.983398,24.684069,0.183105,0.549316,0.305176,38.378904,17.578124,61.523434
2015-11-12T15:45:05.5900000,-0.002441,-0.017578,0.981934,24.690059,0.244141,0.549316,0.366211,38.378904,17.578124,61.523434
2015-11-12T15:45:05.6000000,-0.001465,-0.016113,0.981445,24.687064,0.244141,0.610352,0.366211,38.378904,17.578124,61.523434
2015-11-12T15:45:05.6100000,-0.000977,-0.018555,0.983398,24.669093,0.12207,0.549316,0.427246,38.378904,17.578124,61.523434
2015-11-12T15:45:05.6200000,-0.003906,-0.015625,0.981445,24.678078,0.244141,0.610352,0.366211,38.378904,17.578124,61.523434
2015-11-12T15:45:05.6300000,-0.002441,-0.016602,0.98291,24.684069,0.244141,0.549316,0.305176,38.378904,17.578124,61.523434
2015-11-12T15:45:05.6400000,-0.00293,-0.016113,0.984375,24.696049,0.244141,0.610352,0.244141,38.378904,17.578124,61.523434
2015-11-12T15:45:05.6500000,-0.00293,-0.016113,0.986816,24.693054,0.305176,0.671387,0.305176,38.23242,16.845702,62.841794
2015-11-12T15:45:05.6600000,-0.003418,-0.016602,0.983887,24.687064,0.244141,0.610352,0.244141,38.23242,16.845702,62.841794
2015-11-12T15:45:05.6700000,-0.000488,-0.016602,0.983887,24.705035,0.305176,0.671387,0.244141,38.23242,16.845702,62.841794
2015-11-12T15:45:05.6800000,-0.001465,-0.015137,0.980469,24.699045,0.244141,0.671387,0.305176,38.23242,16.845702,62.841794
2015-11-12T15:45:05.6900000,-0.002441,-0.016602,0.983887,24.693054,0.244141,0.549316,0.366211,38.23242,16.845702,62.841794
2015-11-12T15:45:05.7000000,-0.004395,-0.015625,0.980957,24.705035,0.183105,0.610352,0.366211,38.23242,16.845702,62.841794
2015-11-12T15:45:05.7100000,-0.000977,-0.015625,0.983398,24.699045,0.244141,0.549316,0.244141,38.23242,16.845702,62.841794
2015-11-12T15:45:05.7200000,-0.001465,-0.01709,0.983398,24.687064,0.244141,0.610352,0.244141,38.23242,16.845702,62.841794
2015-11-12T15:45:05.7300000,-0.002441,-0.015137,0.981934,24.696049,0.244141,0.610352,0.305176,38.23242,16.845702,62.841794
2015-11-12T15:45:05.7400000,-0.001953,-0.015137,0.98291,24.690059,0.12207,0.549316,0.305176,38.23242,16.845702,62.841794
2015-11-12T15:45:05.7500000,-0.001465,-0.016113,0.98584,24.690059,0.183105,0.549316,0.305176,38.23242,16.845702,62.841794
2015-11-12T15:45:05.7600000,-0.004395,-0.016602,0.983887,24.693054,0.183105,0.549316,0.305176,38.23242,16.845702,62.841794
2015-11-12T15:45:05.7700000,-0.002441,-0.016602,0.985352,24.70204,0.305176,0.549316,0.366211,38.23242,16.845702,62.841794
2015-11-12T15:45:05.7800000,-0.000488,-0.016602,0.984375,24.687064,0.305176,0.488281,0.366211,38.964842,17.871093,63.281247
2015-11-12T15:45:05.7900000,-0.001465,-0.01709,0.984863,24.693054,0.244141,0.549316,0.305176,38.964842,17.871093,63.281247
2015-11-12T15:45:05.8000000,-0.000488,-0.01709,0.986816,24.690059,0.305176,0.610352,0.305176,38.964842,17.871093,63.281247
2015-11-12T15:45:05.8100000,-0.00293,-0.016602,0.986328,24.678078,0.305176,0.610352,0.366211,38.964842,17.871093,63.281247
2015-11-12T15:45:05.8200000,0,-0.018555,0.984375,24.687064,0.183105,0.549316,0.366211,38.964842,17.871093,63.281247
2015-11-12T15:45:05.8300000,-0.00293,-0.016602,0.981445,24.699045,0.183105,0.610352,0.244141,38.964842,17.871093,63.281247
2015-11-12T15:45:05.8400000,-0.001953,-0.016602,0.985352,24.699045,0.183105,0.549316,0.244141,38.964842,17.871093,63.281247
2015-11-12T15:45:05.8500000,-0.00293,-0.018066,0.980469,24.711025,0.183105,0.610352,0.244141,38.964842,17.871093,63.281247
2015-11-12T15:45:05.8600000,-0.001953,-0.01709,0.983398,24.705035,0.244141,0.488281,0.366211,38.964842,17.871093,63.281247
2015-11-12T15:45:05.8700000,-0.002441,-0.016602,0.98584,24.699045,0.305176,0.549316,0.305176,38.964842,17.871093,63.281247
2015-11-12T15:45:05.8800000,-0.001953,-0.017578,0.983887,24.699045,0.244141,0.549316,0.305176,38.964842,17.871093,63.281247
2015-11-12T15:45:05.8900000,-0.002441,-0.015625,0.981934,24.70204,0.244141,0.610352,0.305176,38.964842,17.871093,63.281247
2015-11-12T15:45:05.9000000,-0.001953,-0.015137,0.984863,24.696049,0.183105,0.671387,0.305176,38.818357,17.724609,62.548825
2015-11-12T15:45:05.9100000,-0.002441,-0.015137,0.987305,24.70204,0.12207,0.610352,0.305176,38.818357,17.724609,62.548825
2015-11-12T15:45:05.9200000,-0.001953,-0.01709,0.98584,24.705035,0.183105,0.610352,0.244141,38.818357,17.724609,62.548825
2015-11-12T15:45:05.9300000,-0.000488,-0.015625,0.980469,24.699045,0.244141,0.610352,0.305176,38.818357,17.724609,62.548825
2015-11-12T15:45:05.9400000,-0.001465,-0.015625,0.98584,24.696049,0.366211,0.549316,0.244141,38.818357,17.724609,62.548825
2015-11-12T15:45:05.9500000,-0.002441,-0.015137,0.983887,24.690059,0.244141,0.610352,0.244141,38.818357,17.724609,62.548825
2015-11-12T15:45:05.9600000,-0.003906,-0.016113,0.984375,24.684069,0.244141,0.610352,0.366211,38.818357,17.724609,62.548825
2015-11-12T15:45:05.9700000,-0.00293,-0.017578,0.984375,24.699045,0.244141,0.549316,0.366211,38.818357,17.724609,62.548825
2015-11-12T15:45:05.9800000,-0.002441,-0.016113,0.982422,24.70803,0.305176,0.488281,0.305176,38.818357,17.724609,62.548825
2015-11-12T15:45:05.9900000,-0.001465,-0.015625,0.984375,24.70803,0.244141,0.488281,0.305176,38.818357,17.724609,62.548825
2015-11-12T15:45:06.0000000,-0.000977,-0.016113,0.983887,24.711025,0.244141,0.549316,0.366211,38.818357,17.724609,62.548825
2015-11-12T15:45:06.0100000,-0.000977,-0.015625,0.987305,24.711025,0.244141,0.488281,0.366211,38.818357,17.724609,62.548825
2015-11-12T15:45:06.0200000,-0.003418,-0.015625,0.984863,24.699045,0.183105,0.610352,0.305176,38.818357,17.724609,62.548825
2015-11-12T15:45:06.0300000,-0.002441,-0.017578,0.984375,24.70204,0.244141,0.549316,0.305176,38.525389,16.845702,62.548825
2015-11-12T15:45:06.0400000,-0.001953,-0.015625,0.981934,24.711025,0.244141,0.549316,0.305176,38.525389,16.845702,62.548825
2015-11-12T15:45:06.0500000,-0.001465,-0.01709,0.985352,24.70204,0.244141,0.549316,0.305176,38.525389,16.845702,62.548825
2015-11-12T15:45:06.0600000,-0.001953,-0.01709,0.984375,24.723006,0.244141,0.610352,0.366211,38.525389,16.845702,62.548825
2015-11-12T15:45:06.0700000,-0.00293,-0.015137,0.983398,24.720011,0.244141,0.488281,0.366211,38.525389,16.845702,62.548825
2015-11-12T15:45:06.0800000,-0.002441,-0.016602,0.982422,24.720011,0.183105,0.549316,0.305176,38.525389,16.845702,62.548825
2015-11-12T15:45:06.0900000,-0.00293,-0.016113,0.982422,24.723006,0.244141,0.610352,0.305176,38.525389,16.845702,62.548825
2015-11-12T15:45:06.1000000,-0.00293,-0.016602,0.988281,24.726001,0.244141,0.549316,0.305176,38.525389,16.845702,62.548825
2015-11-12T15:45:06.1100000,-0.001465,-0.017578,0.982422,24.720011,0.183105,0.549316,0.305176,38.525389,16.845702,62.548825
2015-11-12T15:45:06.1200000,-0.001953,-0.016113,0.981934,24.728996,0.183105,0.671387,0.366211,38.525389,16.845702,62.548825
2015-11-12T15:45:06.1300000,-0.002441,-0.016113,0.984863,24.723006,0.244141,0.549316,0.305176,38.525389,16.845702,62.548825
2015-11-12T15:45:06.1400000,-0.000977,-0.01416,0.982422,24.726001,0.244141,0.488281,0.244141,38.525389,16.845702,62.548825
2015-11-12T15:45:06.1500000,-0.004395,-0.01416,0.98584,24.720011,0.244141,0.488281,0.305176,38.671873,18.164062,62.109372
2015-11-12T15:45:06.1600000,-0.001465,-0.016602,0.981934,24.71402,0.183105,0.427246,0.427246,38.671873,18.164062,62.109372
2015-11-12T15:45:06.1700000,-0.001953,-0.015625,0.984863,24.731992,0.244141,0.549316,0.305176,38.671873,18.164062,62.109372
2015-11-12T15:45:06.1800000,-0.001953,-0.015137,0.98291,24.737982,0.183105,0.549316,0.366211,38.671873,18.164062,62.109372
2015-11-12T15:45:06.1900000,-0.001465,-0.01709,0.98584,24.728996,0.244141,0.549316,0.305176,38.671873,18.164062,62.109372
2015-11-12T15:45:06.2000000,-0.000977,-0.016602,0.984863,24.711025,0.244141,0.549316,0.305176,38.671873,18.164062,62.109372
2015-11-12T15:45:06.2100000,-0.002441,-0.015625,0.984863,24.70204,0.183105,0.549316,0.305176,38.671873,18.164062,62.109372
2015-11-12T15:45:06.2200000,-0.003906,-0.015625,0.983398,24.711025,0.244141,0.549316,0.366211,38.671873,18.164062,62.109372
2015-11-12T15:45:06.2300000,0,-0.016113,0.984375,24.71402,0.183105,0.549316,0.366211,38.671873,18.164062,62.109372
2015-11-12T15:45:06.2400000,-0.001465,-0.015625,0.985352,24.71402,0.244141,0.610352,0.305176,38.671873,18.164062,62.109372
2015-11-12T15:45:06.2500000,-0.00293,-0.015625,0.98584,24.717016,0.244141,0.610352,0.244141,38.671873,18.164062,62.109372
2015-11-12T15:45:06.2600000,0,-0.016113,0.98291,24.717016,0.244141,0.610352,0.305176,38.671873,18.164062,62.109372
2015-11-12T15:45:06.2700000,0,-0.015137,0.984375,24.70204,0.244141,0.610352,0.366211,38.671873,18.164062,62.109372
2015-11-12T15:45:06.2800000,-0.001953,-0.016113,0.986328,24.699045,0.244141,0.610352,0.366211,38.964842,17.285155,62.695309
2015-11-12T15:45:06.2900000,-0.00293,-0.015625,0.981934,24.717016,0.183105,0.549316,0.305176,38.964842,17.285155,62.695309
2015-11-12T15:45:06.3000000,-0.001465,-0.015625,0.986816,24.726001,0.183105,0.549316,0.305176,38.964842,17.285155,62.695309
2015-11-12T15:45:06.3100000,-0.00293,-0.014648,0.982422,24.723006,0.244141,0.610352,0.427246,38.964842,17.285155,62.695309
2015-11-12T15:45:06.3200000,-0.000977,-0.016113,0.98584,24.731992,0.183105,0.610352,0.427246,38.964842,17.285155,62.695309
2015-11-12T15:45:06.3300000,-0.001465,-0.015625,0.988281,24.720011,0.244141,0.610352,0.244141,38.964842,17.285155,62.695309
2015-11-12T15:45:06.3400000,-0.000488,-0.01709,0.980469,24.71402,0.183105,0.488281,0.305176,38.964842,17.285155,62.695309
2015-11-12T15:45:06.3500000,-0.001953,-0.016113,0.983398,24.70803,0.183105,0.488281,0.366211,38.964842,17.285155,62.695309
2015-11-12T15:45:06.3600000,-0.00293,-0.015137,0.982422,24.70803,0.244141,0.488281,0.305176,38.964842,17.285155,62.695309
2015-11-12T15:45:06.3700000,-0.003906,-0.01709,0.983887,24.699045,0.305176,0.549316,0.244141,38.964842,17.285155,62.695309
2015-11-12T15:45:06.3800000,-0.001953,-0.015625,0.981445,24.70204,0.244141,0.488281,0.305176,38.964842,17.285155,62.695309
2015-11-12T15:45:06.3900000,-0.00293,-0.015625,0.98584,24.696049,0.244141,0.488281,0.305176,38.964842,17.285155,62.695309
2015-11-12T15:45:06.4000000,-0.001953,-0.016113,0.981934,24.684069,0.244141,0.488281,0.305176,38.964842,17.285155,62.109372
2015-11-12T15:45:06.4100000,-0.002441,-0.01416,0.984863,24.696049,0.244141,0.549316,0.305176,38.964842,17.285155,62.109372
2015-11-12T15:45:06.4200000,-0.001953,-0.016113,0.981934,24.711025,0.183105,0.610352,0.305176,38.964842,17.285155,62.109372
2015-11-12T15:45:06.4300000,-0.002441,-0.016113,0.985352,24.711025,0.244141,0.549316,0.183105,38.964842,17.285155,62.109372
2015-11-12T15:45:06.4400000,-0.000977,-0.016113,0.98291,24.70204,0.244141,0.610352,0.244141,38.964842,17.285155,62.109372
2015-11-12T15:45:06.4500000,-0.001953,-0.01709,0.981934,24.696049,0.244141,0.610352,0.244141,38.964842,17.285155,62.109372
2015-11-12T15:45:06.4600000,-0.001953,-0.015137,0.983887,24.684069,0.244141,0.610352,0.244141,38.964842,17.285155,62.109372
2015-11-12T15:45:06.4700000,-0.001953,-0.016113,0.98584,24.717016,0.244141,0.610352,0.366211,38.964842,17.285155,62.109372
2015-11-12T15:45:06.4800000,-0.002441,-0.014648,0.981445,24.711025,0.244141,0.549316,0.305176,38.964842,17.285155,62.109372
2015-11-12T15:45:06.4900000,-0.001953,-0.016602,0.980957,24.71402,0.244141,0.549316,0.244141,38.964842,17.285155,62.109372
2015-11-12T15:45:06.5000000,-0.00293,-0.016602,0.979492,24.70204,0.183105,0.488281,0.305176,38.964842,17.285155,62.109372
2015-11-12T15:45:06.5100000,-0.001953,-0.016602,0.983887,24.705035,0.183105,0.610352,0.366211,38.964842,17.285155,62.109372
2015-11-12T15:45:06.5200000,-0.001953,-0.013672,0.981934,24.70204,0.244141,0.549316,0.366211,38.964842,17.285155,62.109372
2015-11-12T15:45:06.5300000,-0.003418,-0.016113,0.981445,24.693054,0.244141,0.549316,0.305176,38.085936,17.285155,61.816403
2015-11-12T15:45:06.5400000,-0.003418,-0.016113,0.982422,24.705035,0.244141,0.549316,0.244141,38.085936,17.285155,61.816403
2015-11-12T15:45:06.5500000,-0.000488,-0.013184,0.986328,24.711025,0.183105,0.671387,0.244141,38.085936,17.285155,61.816403
2015-11-12T15:45:06.5600000,-0.00293,-0.015137,0.979004,24.731992,0.244141,0.549316,0.366211,38.085936,17.285155,61.816403
2015-11-12T15:45:06.5700000,-0.00293,-0.016113,0.984863,24.723006,0.305176,0.610352,0.305176,38.085936,17.285155,61.816403
2015-11-12T15:45:06.5800000,-0.003906,-0.016113,0.980957,24.717016,0.244141,0.549316,0.183105,38.085936,17.285155,61.816403
2015-11-12T15:45:06.5900000,-0.00293,-0.016113,0.981934,24.696049,0.183105,0.610352,0.305176,38.085936,17.285155,61.816403
2015-11-12T15:45:06.6000000,0.000488,-0.015625,0.983887,24.70204,0.244141,0.549316,0.305176,38.085936,17.285155,61.816403
2015-11-12T15:45:06.6100000,-0.00293,-0.01416,0.986816,24.70204,0.244141,0.610352,0.305176,38.085936,17.285155,61.816403
2015-11-12T15:45:06.6200000,-0.003418,-0.015625,0.986328,24.70803,0.183105,0.671387,0.305176,38.085936,17.285155,61.816403
2015-11-12T15:45:06.6300000,-0.002441,-0.016113,0.982422,24.70204,0.183105,0.549316,0.244141,38.085936,17.285155,61.816403
2015-11-12T15:45:06.6400000,-0.002441,-0.01416,0.979004,24.70803,0.183105,0.549316,0.244141,38.085936,17.285155,61.816403
2015-11-12T15:45:06.6500000,-0.001465,-0.01709,0.98877,24.705035,0.183105,0.610352,0.305176,39.111326,16.552734,60.791013
2015-11-12T15:45:06.6600000,-0.003418,-0.01709,0.987305,24.723006,0.244141,0.549316,0.366211,39.111326,16.552734,60.791013
2015-11-12T15:45:06.6700000,-0.001953,-0.015137,0.98291,24.70803,0.305176,0.549316,0.366211,39.111326,16.552734,60.791013
2015-11-12T15:45:06.6800000,-0.000977,-0.01416,0.984375,24.699045,0.244141,0.488281,0.305176,39.111326,16.552734,60.791013
2015-11-12T15:45:06.6900000,-0.003418,-0.016602,0.98877,24.70204,0.244141,0.549316,0.305176,39.111326,16.552734,60.791013
2015-11-12T15:45:06.7000000,-0.00293,-0.01416,0.980469,24.728996,0.244141,0.610352,0.244141,39.111326,16.552734,60.791013
2015-11-12T15:45:06.7100000,-0.001953,-0.015137,0.980957,24.717016,0.244141,0.549316,0.244141,39.111326,16.552734,60.791013
2015-11-12T15:45:06.7200000,-0.000977,-0.016113,0.984863,24.728996,0.305176,0.488281,0.305176,39.111326,16.552734,60.791013
2015-11-12T15:45:06.7300000,-0.002441,-0.015625,0.986328,24.711025,0.244141,0.488281,0.305176,39.111326,16.552734,60.791013
2015-11-12T15:45:06.7400000,-0.001953,-0.01709,0.985352,24.71402,0.244141,0.549316,0.244141,39.111326,16.552734,60.791013
2015-11-12T15:45:06.7500000,-0.001953,-0.015625,0.981934,24.705035,0.244141,0.610352,0.366211,39.111326,16.552734,60.791013
2015-11-12T15:45:06.7600000,-0.002441,-0.016113,0.980957,24.705035,0.244141,0.610352,0.366211,39.111326,16.552734,60.791013
2015-11-12T15:45:06.7700000,-0.002441,-0.017578,0.983398,24.70204,0.183105,0.610352,0.305176,39.111326,16.552734,60.791013
2015-11-12T15:45:06.7800000,-0.00293,-0.014648,0.986328,24.705035,0.183105,0.549316,0.305176,39.257811,18.164062,61.816403
2015-11-12T15:45:06.7900000,-0.000977,-0.01416,0.986328,24.71402,0.183105,0.549316,0.366211,39.257811,18.164062,61.816403
2015-11-12T15:45:06.8000000,-0.000977,-0.015625,0.986816,24.717016,0.305176,0.549316,0.244141,39.257811,18.164062,61.816403
2015-11-12T15:45:06.8100000,-0.004395,-0.015625,0.981934,24.711025,0.244141,0.549316,0.244141,39.257811,18.164062,61.816403
2015-11-12T15:45:06.8200000,-0.000977,-0.017578,0.984375,24.70803,0.244141,0.610352,0.305176,39.257811,18.164062,61.816403
2015-11-12T15:45:06.8300000,-0.000488,-0.015625,0.98291,24.711025,0.244141,0.488281,0.305176,39.257811,18.164062,61.816403
2015-11-12T15:45:06.8400000,-0.000977,-0.015625,0.981934,24.70204,0.244141,0.488281,0.244141,39.257811,18.164062,61.816403
2015-11-12T15:45:06.8500000,-0.003418,-0.01709,0.981934,24.705035,0.244141,0.488281,0.305176,39.257811,18.164062,61.816403
2015-11-12T15:45:06.8600000,-0.003906,-0.015625,0.97998,24.699045,0.244141,0.549316,0.305176,39.257811,18.164062,61.816403
2015-11-12T15:45:06.8700000,-0.001465,-0.015137,0.98291,24.687064,0.244141,0.488281,0.305176,39.257811,18.164062,61.816403
2015-11-12T15:45:06.8800000,-0.000977,-0.014648,0.980957,24.70803,0.244141,0.549316,0.366211,39.257811,18.164062,61.816403
2015-11-12T15:45:06.8900000,-0.00293,-0.016113,0.982422,24.699045,0.183105,0.549316,0.305176,39.257811,18.164062,61.816403
2015-11-12T15:45:06.9000000,-0.002441,-0.016602,0.98291,24.696049,0.183105,0.610352,0.366211,38.671873,18.164062,62.402341
2015-11-12T15:45:06.9100000,-0.001953,-0.015625,0.986816,24.699045,0.183105,0.610352,0.305176,38.671873,18.164062,62.402341
2015-11-12T15:45:06.9200000,-0.001465,-0.015625,0.986328,24.70803,0.12207,0.549316,0.305176,38.671873,18.164062,62.402341
2015-11-12T15:45:06.9300000,-0.00293,-0.015137,0.982422,24.70803,0.244141,0.549316,0.244141,38.671873,18.164062,62.402341
2015-11-12T15:45:06.9400000,-0.001953,-0.015625,0.983887,24.71402,0.244141,0.549316,0.305176,38.671873,18.164062,62.402341
2015-11-12T15:45:06.9500000,-0.00293,-0.016113,0.986816,24.70803,0.244141,0.549316,0.366211,38.671873,18.164062,62.402341
2015-11-12T15:45:06.9600000,-0.00293,-0.016602,0.984863,24.699045,0.244141,0.549316,0.305176,38.671873,18.164062,62.402341
2015-11-12T15:45:06.9700000,-0.001953,-0.01709,0.984375,24.705035,0.183105,0.488281,0.244141,38.671873,18.164062,62.402341
2015-11-12T15:45:06.9800000,-0.002441,-0.015137,0.980957,24.728996,0.183105,0.549316,0.366211,38.671873,18.164062,62.402341
2015-11-12T15:45:06.9900000,-0.001953,-0.016602,0.98584,24.720011,0.183105,0.549316,0.305176,38.671873,18.164062,62.402341
2015-11-12T15:45:07.0000000,-0.001953,-0.015625,0.980957,24.720011,0.183105,0.549316,0.244141,38.671873,18.164062,62.402341
2015-11-12T15:45:07.0100000,-0.002441,-0.01709,0.982422,24.699045,0.305176,0.549316,0.427246,38.671873,18.164062,62.402341
2015-11-12T15:45:07.0200000,-0.00293,-0.016113,0.981445,24.717016,0.183105,0.549316,0.427246,38.671873,18.164062,62.402341
2015-11-12T15:45:07.0300000,-0.00293,-0.016113,0.984863,24.728996,0.244141,0.549316,0.305176,38.964842,17.578124,60.937497
2015-11-12T15:45:07.0400000,-0.001465,-0.016113,0.985352,24.70803,0.244141,0.549316,0.305176,38.964842,17.578124,60.937497
2015-11-12T15:45:07.0500000,-0.000977,-0.017578,0.981445,24.711025,0.183105,0.610352,0.244141,38.964842,17.578124,60.937497
2015-11-12T15:45:07.0600000,-0.001953,-0.015137,0.981445,24.723006,0.244141,0.549316,0.244141,38.964842,17.578124,60.937497
2015-11-12T15:45:07.0700000,-0.002441,-0.015625,0.983398,24.720011,0.244141,0.610352,0.305176,38.964842,17.578124,60.937497
2015-11-12T15:45:07.0800000,-0.000977,-0.01416,0.98291,24.726001,0.244141,0.488281,0.305176,38.964842,17.578124,60.937497
2015-11-12T15:45:07.0900000,-0.001953,-0.016113,0.980957,24.734987,0.183105,0.549316,0.305176,38.964842,17.578124,60.937497
2015-11-12T15:45:07.1000000,-0.001465,-0.01709,0.980957,24.740977,0.183105,0.549316,0.305176,38.964842,17.578124,60.937497
2015-11-12T15:45:07.1100000,-0.001953,-0.015137,0.982422,24.723006,0.183105,0.549316,0.244141,38.964842,17.578124,60.937497
2015-11-12T15:45:07.1200000,-0.001953,-0.016113,0.985352,24.723006,0.183105,0.549316,0.366211,38.964842,17.578124,60.937497
2015-11-12T15:45:07.1300000,-0.000977,-0.014648,0.984863,24.734987,0.244141,0.610352,0.305176,38.964842,17.578124,60.937497
2015-11-12T15:45:07.1400000,-0.001953,-0.01416,0.981445,24.743972,0.183105,0.610352,0.366211,38.964842,17.578124,60.937497
2015-11-12T15:45:07.1500000,-0.003418,-0.015625,0.981934,24.728996,0.183105,0.610352,0.305176,38.964842,17.578124,60.937497
2015-11-12T15:45:07.1600000,-0.000977,-0.015137,0.983887,24.731992,0.183105,0.549316,0.305176,40.57617,17.138671,62.255856
2015-11-12T15:45:07.1700000,-0.000488,-0.015137,0.984375,24.726001,0.244141,0.610352,0.244141,40.57617,17.138671,62.255856
2015-11-12T15:45:07.1800000,-0.003906,-0.015625,0.985352,24.734987,0.244141,0.671387,0.305176,40.57617,17.138671,62.255856
2015-11-12T15:45:07.1900000,-0.001953,-0.015625,0.983887,24.743972,0.12207,0.610352,0.366211,40.57617,17.138671,62.255856
2015-11-12T15:45:07.2000000,-0.003906,-0.014648,0.98291,24.726001,0.244141,0.549316,0.366211,40.57617,17.138671,62.255856
2015-11-12T15:45:07.2100000,-0.002441,-0.016113,0.985352,24.726001,0.244141,0.488281,0.244141,40.57617,17.138671,62.255856
2015-11-12T15:45:07.2200000,-0.002441,-0.018555,0.986328,24.726001,0.183105,0.549316,0.244141,40.57617,17.138671,62.255856
2015-11-12T15:45:07.2300000,-0.001465,-0.013672,0.983398,24.723006,0.244141,0.610352,0.366211,40.57617,17.138671,62.255856
2015-11-12T15:45:07.2400000,-0.001953,-0.017578,0.982422,24.711025,0.305176,0.549316,0.305176,40.57617,17.138671,62.255856
2015-11-12T15:45:07.2500000,-0.000977,-0.01709,0.984863,24.726001,0.244141,0.549316,0.305176,40.57617,17.138671,62.255856
2015-11-12T15:45:07.2600000,-0.00293,-0.014648,0.981445,24.70204,0.183105,0.610352,0.305176,40.57617,17.138671,62.255856
2015-11-12T15:45:07.2700000,-0.002441,-0.01709,0.986816,24.717016,0.183105,0.549316,0.305176,40.57617,17.138671,62.255856
2015-11-12T15:45:07.2800000,-0.00293,-0.015137,0.985352,24.711025,0.12207,0.549316,0.305176,38.525389,17.43164,60.791013
2015-11-12T15:45:07.2900000,-0.003418,-0.015137,0.981445,24.705035,0.244141,0.549316,0.305176,38.525389,17.43164,60.791013
2015-11-12T15:45:07.3000000,-0.003418,-0.013672,0.982422,24.734987,0.244141,0.549316,0.366211,38.525389,17.43164,60.791013
2015-11-12T15:45:07.3100000,-0.00293,-0.015137,0.98291,24.743972,0.183105,0.610352,0.305176,38.525389,17.43164,60.791013
2015-11-12T15:45:07.3200000,-0.001465,-0.015137,0.98584,24.717016,0.183105,0.610352,0.305176,38.525389,17.43164,60.791013
2015-11-12T15:45:07.3300000,-0.001953,-0.015137,0.981445,24.723006,0.244141,0.549316,0.366211,38.525389,17.43164,60.791013
2015-11-12T15:45:07.3400000,0.000488,-0.015625,0.980469,24.731992,0.305176,0.549316,0.305176,38.525389,17.43164,60.791013
2015-11-12T15:45:07.3500000,-0.001465,-0.01709,0.981934,24.723006,0.183105,0.488281,0.305176,38.525389,17.43164,60.791013
2015-11-12T15:45:07.3600000,-0.002441,-0.016602,0.98291,24.71402,0.183105,0.488281,0.305176,38.525389,17.43164,60.791013
2015-11-12T15:45:07.3700000,-0.00293,-0.016602,0.983887,24.711025,0.244141,0.488281,0.244141,38.525389,17.43164,60.791013
2015-11-12T15:45:07.3800000,-0.00293,-0.012207,0.97998,24.717016,0.244141,0.488281,0.305176,38.525389,17.43164,60.791013
2015-11-12T15:45:07.3900000,-0.001953,-0.015137,0.986328,24.728996,0.305176,0.549316,0.305176,38.525389,17.43164,60.791013
2015-11-12T15:45:07.4000000,0,-0.017578,0.98584,24.728996,0.244141,0.610352,0.244141,38.525389,17.43164,60.791013
2015-11-12T15:45:07.4100000,-0.00293,-0.016113,0.987793,24.731992,0.183105,0.549316,0.366211,38.23242,17.43164,62.255856
2015-11-12T15:45:07.4200000,-0.000977,-0.016602,0.984375,24.720011,0.305176,0.671387,0.244141,38.23242,17.43164,62.255856
2015-11-12T15:45:07.4300000,-0.001953,-0.016602,0.981934,24.720011,0.183105,0.610352,0.305176,38.23242,17.43164,62.255856
2015-11-12T15:45:07.4400000,-0.003418,-0.015625,0.981445,24.728996,0.183105,0.488281,0.305176,38.23242,17.43164,62.255856
2015-11-12T15:45:07.4500000,-0.003418,-0.016602,0.983398,24.728996,0.244141,0.488281,0.305176,38.23242,17.43164,62.255856
2015-11-12T15:45:07.4600000,-0.003906,-0.015137,0.981445,24.728996,0.244141,0.549316,0.366211,38.23242,17.43164,62.255856
2015-11-12T15:45:07.4700000,-0.004395,-0.015625,0.98584,24.720011,0.244141,0.610352,0.366211,38.23242,17.43164,62.255856
2015-11-12T15:45:07.4800000,-0.002441,-0.015137,0.983398,24.71402,0.183105,0.488281,0.305176,38.23242,17.43164,62.255856
2015-11-12T15:45:07.4900000,-0.003418,-0.01416,0.981445,24.720011,0.244141,0.488281,0.366211,38.23242,17.43164,62.255856
2015-11-12T15:45:07.5000000,-0.001953,-0.016602,0.982422,24.723006,0.305176,0.549316,0.305176,38.23242,17.43164,62.255856
2015-11-12T15:45:07.5100000,-0.00293,-0.016602,0.980957,24.717016,0.244141,0.549316,0.244141,38.23242,17.43164,62.255856
2015-11-12T15:45:07.5200000,-0.000977,-0.014648,0.98584,24.705035,0.305176,0.549316,0.305176,38.23242,17.43164,62.255856
2015-11-12T15:45:07.5300000,-0.002441,-0.015625,0.984375,24.71402,0.244141,0.549316,0.366211,39.111326,16.845702,60.498044
2015-11-12T15:45:07.5400000,-0.001465,-0.013672,0.986816,24.711025,0.244141,0.549316,0.366211,39.111326,16.845702,60.498044
2015-11-12T15:45:07.5500000,-0.001465,-0.015625,0.984375,24.723006,0.183105,0.610352,0.366211,39.111326,16.845702,60.498044
2015-11-12T15:45:07.5600000,-0.001465,-0.017578,0.980957,24.720011,0.244141,0.610352,0.244141,39.111326,16.845702,60.498044
2015-11-12T15:45:07.5700000,-0.003418,-0.01709,0.983887,24.711025,0.244141,0.549316,0.366211,39.111326,16.845702,60.498044
2015-11-12T15:45:07.5800000,-0.003906,-0.015625,0.981445,24.696049,0.305176,0.610352,0.305176,39.111326,16.845702,60.498044
2015-11-12T15:45:07.5900000,-0.001953,-0.015625,0.983398,24.723006,0.183105,0.610352,0.305176,39.111326,16.845702,60.498044
2015-11-12T15:45:07.6000000,-0.004395,-0.015625,0.983887,24.726001,0.183105,0.549316,0.366211,39.111326,16.845702,60.498044
2015-11-12T15:45:07.6100000,-0.004395,-0.016602,0.984375,24.723006,0.12207,0.488281,0.305176,39.111326,16.845702,60.498044
2015-11-12T15:45:07.6200000,-0.001953,-0.015137,0.983887,24.720011,0.244141,0.549316,0.244141,39.111326,16.845702,60.498044
2015-11-12T15:45:07.6300000,-0.003906,-0.015625,0.981934,24.70204,0.244141,0.549316,0.366211,39.111326,16.845702,60.498044
2015-11-12T15:45:07.6400000,-0.002441,-0.015137,0.981934,24.726001,0.244141,0.610352,0.305176,39.111326,16.845702,60.498044
2015-11-12T15:45:07.6500000,-0.002441,-0.015137,0.979492,24.734987,0.305176,0.549316,0.366211,39.111326,16.845702,60.498044
2015-11-12T15:45:07.6600000,-0.001465,-0.014648,0.98877,24.717016,0.244141,0.671387,0.305176,38.671873,16.992187,61.816403
2015-11-12T15:45:07.6700000,-0.004883,-0.015625,0.984375,24.731992,0.244141,0.610352,0.427246,38.671873,16.992187,61.816403
2015-11-12T15:45:07.6800000,-0.003906,-0.015625,0.983398,24.731992,0.183105,0.488281,0.305176,38.671873,16.992187,61.816403
2015-11-12T15:45:07.6900000,-0.002441,-0.017578,0.987305,24.740977,0.183105,0.610352,0.244141,38.671873,16.992187,61.816403
2015-11-12T15:45:07.7000000,-0.002441,-0.01416,0.984375,24.734987,0.244141,0.488281,0.244141,38.671873,16.992187,61.816403
2015-11-12T15:45:07.7100000,-0.001465,-0.016602,0.983398,24.728996,0.244141,0.610352,0.305176,38.671873,16.992187,61.816403
2015-11-12T15:45:07.7200000,-0.000488,-0.016602,0.983887,24.70803,0.183105,0.549316,0.305176,38.671873,16.992187,61.816403
2015-11-12T15:45:07.7300000,-0.000488,-0.015137,0.986328,24.71402,0.183105,0.549316,0.366211,38.671873,16.992187,61.816403
2015-11-12T15:45:07.7400000,0,-0.016602,0.98584,24.71402,0.183105,0.549316,0.366211,38.671873,16.992187,61.816403
2015-11-12T15:45:07.7500000,-0.000977,-0.016113,0.983887,24.699045,0.244141,0.549316,0.244141,38.671873,16.992187,61.816403
2015-11-12T15:45:07.7600000,-0.00293,-0.015625,0.981445,24.70204,0.244141,0.610352,0.305176,38.671873,16.992187,61.816403
2015-11-12T15:45:07.7700000,-0.003418,-0.013672,0.984863,24.70803,0.183105,0.549316,0.305176,38.671873,16.992187,61.816403
2015-11-12T15:45:07.7800000,-0.00293,-0.01416,0.987793,24.71402,0.244141,0.549316,0.244141,38.525389,18.603515,61.962888
2015-11-12T15:45:07.7900000,-0.00293,-0.015625,0.97998,24.717016,0.305176,0.549316,0.244141,38.525389,18.603515,61.962888
2015-11-12T15:45:07.8000000,-0.000488,-0.015137,0.981934,24.720011,0.244141,0.549316,0.305176,38.525389,18.603515,61.962888
2015-11-12T15:45:07.8100000,-0.001465,-0.015625,0.981934,24.711025,0.305176,0.671387,0.366211,38.525389,18.603515,61.962888
2015-11-12T15:45:07.8200000,-0.00293,-0.016113,0.981934,24.70803,0.244141,0.610352,0.305176,38.525389,18.603515,61.962888
2015-11-12T15:45:07.8300000,-0.000977,-0.017578,0.983398,24.734987,0.244141,0.549316,0.305176,38.525389,18.603515,61.962888
2015-11-12T15:45:07.8400000,-0.003418,-0.015625,0.982422,24.717016,0.244141,0.610352,0.366211,38.525389,18.603515,61.962888
2015-11-12T15:45:07.8500000,-0.001465,-0.016113,0.985352,24.717016,0.305176,0.610352,0.305176,38.525389,18.603515,61.962888
2015-11-12T15:45:07.8600000,-0.003418,-0.014648,0.982422,24.720011,0.305176,0.488281,0.305176,38.525389,18.603515,61.962888
2015-11-12T15:45:07.8700000,-0.002441,-0.016602,0.983887,24.70204,0.244141,0.549316,0.305176,38.525389,18.603515,61.962888
2015-11-12T15:45:07.8800000,-0.003906,-0.015625,0.983887,24.699045,0.244141,0.488281,0.305176,38.525389,18.603515,61.962888
2015-11-12T15:45:07.8900000,-0.003418,-0.014648,0.981934,24.70803,0.244141,0.549316,0.244141,38.525389,18.603515,61.962888
2015-11-12T15:45:07.9000000,-0.001953,-0.016113,0.981445,24.726001,0.244141,0.610352,0.366211,38.525389,18.603515,61.962888
2015-11-12T15:45:07.9100000,0,-0.013184,0.980957,24.699045,0.244141,0.610352,0.366211,38.378904,18.164062,61.816403
2015-11-12T15:45:07.9200000,-0.001465,-0.015625,0.981445,24.728996,0.183105,0.549316,0.305176,38.378904,18.164062,61.816403
2015-11-12T15:45:07.9300000,-0.001953,-0.01709,0.98584,24.731992,0.305176,0.549316,0.244141,38.378904,18.164062,61.816403
2015-11-12T15:45:07.9400000,-0.00293,-0.016113,0.984375,24.717016,0.183105,0.549316,0.244141,38.378904,18.164062,61.816403
2015-11-12T15:45:07.9500000,-0.00293,-0.016113,0.98291,24.728996,0.244141,0.488281,0.244141,38.378904,18.164062,61.816403
2015-11-12T15:45:07.9600000,-0.002441,-0.017578,0.980469,24.728996,0.244141,0.549316,0.366211,38.378904,18.164062,61.816403
2015-11-12T15:45:07.9700000,-0.000488,-0.016113,0.98291,24.726001,0.244141,0.549316,0.305176,38.378904,18.164062,61.816403
2015-11-12T15:45:07.9800000,-0.001465,-0.015137,0.980957,24.70803,0.244141,0.610352,0.366211,38.378904,18.164062,61.816403
2015-11-12T15:45:07.9900000,-0.002441,-0.015625,0.980469,24.71402,0.305176,0.671387,0.366211,38.378904,18.164062,61.816403
2015-11-12T15:45:08.0000000,-0.003418,-0.016113,0.984375,24.71402,0.244141,0.610352,0.305176,38.378904,18.164062,61.816403
2015-11-12T15:45:08.0100000,-0.002441,-0.017578,0.98584,24.71402,0.305176,0.488281,0.305176,38.378904,18.164062,61.816403
2015-11-12T15:45:08.0200000,-0.001465,-0.016113,0.981445,24.71402,0.244141,0.549316,0.305176,38.378904,18.164062,61.816403
2015-11-12T15:45:08.0300000,-0.001465,-0.01709,0.981934,24.720011,0.244141,0.610352,0.366211,38.525389,18.310546,61.962888
2015-11-12T15:45:08.0400000,-0.000977,-0.015625,0.984375,24.734987,0.244141,0.610352,0.366211,38.525389,18.310546,61.962888
2015-11-12T15:45:08.0500000,0,-0.01709,0.984863,24.737982,0.244141,0.610352,0.366211,38.525389,18.310546,61.962888
2015-11-12T15:45:08.0600000,0,-0.016602,0.983398,24.734987,0.183105,0.549316,0.305176,38.525389,18.310546,61.962888
2015-11-12T15:45:08.0700000,-0.002441,-0.015625,0.985352,24.726001,0.244141,0.610352,0.366211,38.525389,18.310546,61.962888
2015-11-12T15:45:08.0800000,0,-0.01416,0.983887,24.717016,0.244141,0.610352,0.366211,38.525389,18.310546,61.962888
2015-11-12T15:45:08.0900000,-0.001465,-0.016113,0.981934,24.731992,0.244141,0.610352,0.366211,38.525389,18.310546,61.962888
2015-11-12T15:45:08.1000000,-0.001465,-0.015625,0.984375,24.740977,0.183105,0.488281,0.183105,38.525389,18.310546,61.962888
2015-11-12T15:45:08.1100000,-0.00293,-0.015625,0.981934,24.728996,0.305176,0.549316,0.305176,38.525389,18.310546,61.962888
2015-11-12T15:45:08.1200000,-0.001465,-0.014648,0.984863,24.740977,0.305176,0.610352,0.244141,38.525389,18.310546,61.962888
2015-11-12T15:45:08.1300000,-0.001465,-0.014648,0.982422,24.740977,0.244141,0.488281,0.305176,38.525389,18.310546,61.962888
2015-11-12T15:45:08.1400000,-0.002441,-0.014648,0.981445,24.740977,0.305176,0.549316,0.305176,38.525389,18.310546,61.962888
2015-11-12T15:45:08.1500000,-0.003418,-0.017578,0.984375,24.734987,0.305176,0.488281,0.244141,38.525389,18.310546,61.962888
2015-11-12T15:45:08.1600000,-0.000977,-0.013672,0.984375,24.720011,0.244141,0.610352,0.366211,39.257811,18.164062,62.402341
2015-11-12T15:45:08.1700000,-0.000977,-0.014648,0.98291,24.734987,0.244141,0.549316,0.305176,39.257811,18.164062,62.402341
2015-11-12T15:45:08.1800000,-0.001953,-0.015137,0.984375,24.740977,0.183105,0.549316,0.305176,39.257811,18.164062,62.402341
2015-11-12T15:45:08.1900000,-0.003418,-0.016113,0.98291,24.728996,0.183105,0.549316,0.366211,39.257811,18.164062,62.402341
2015-11-12T15:45:08.2000000,-0.00293,-0.016602,0.984375,24.723006,0.244141,0.610352,0.244141,39.257811,18.164062,62.402341
2015-11-12T15:45:08.2100000,-0.001465,-0.013672,0.984375,24.723006,0.183105,0.610352,0.305176,39.257811,18.164062,62.402341
2015-11-12T15:45:08.2200000,-0.002441,-0.014648,0.980469,24.728996,0.244141,0.549316,0.305176,39.257811,18.164062,62.402341
2015-11-12T15:45:08.2300000,-0.004395,-0.016113,0.981934,24.723006,0.183105,0.488281,0.305176,39.257811,18.164062,62.402341
2015-11-12T15:45:08.2400000,-0.003906,-0.014648,0.986328,24.734987,0.183105,0.610352,0.305176,39.257811,18.164062,62.402341
2015-11-12T15:45:08.2500000,-0.001465,-0.014648,0.984375,24.731992,0.183105,0.610352,0.366211,39.257811,18.164062,62.402341
2015-11-12T15:45:08.2600000,-0.002441,-0.016113,0.97998,24.723006,0.12207,0.610352,0.366211,39.257811,18.164062,62.402341
2015-11-12T15:45:08.2700000,0.000977,-0.017578,0.983887,24.740977,0.305176,0.549316,0.366211,39.257811,18.164062,62.402341
2015-11-12T15:45:08.2800000,-0.001953,-0.016113,0.981934,24.728996,0.244141,0.549316,0.366211,37.939451,17.138671,62.548825
2015-11-12T15:45:08.2900000,-0.003906,-0.015625,0.98291,24.717016,0.244141,0.610352,0.305176,37.939451,17.138671,62.548825
2015-11-12T15:45:08.3000000,-0.003906,-0.017578,0.98584,24.726001,0.244141,0.549316,0.244141,37.939451,17.138671,62.548825
2015-11-12T15:45:08.3100000,0.000488,-0.015137,0.981934,24.728996,0.244141,0.549316,0.244141,37.939451,17.138671,62.548825
2015-11-12T15:45:08.3200000,-0.002441,-0.018066,0.984863,24.728996,0.305176,0.549316,0.305176,37.939451,17.138671,62.548825
2015-11-12T15:45:08.3300000,-0.001465,-0.016602,0.983398,24.734987,0.305176,0.549316,0.305176,37.939451,17.138671,62.548825
2015-11-12T15:45:08.3400000,-0.003906,-0.015625,0.984863,24.740977,0.244141,0.549316,0.305176,37.939451,17.138671,62.548825
2015-11-12T15:45:08.3500000,-0.001953,-0.014648,0.985352,24.726001,0.244141,0.549316,0.305176,37.939451,17.138671,62.548825
2015-11-12T15:45:08.3600000,-0.00293,-0.016602,0.985352,24.731992,0.183105,0.549316,0.305176,37.939451,17.138671,62.548825
2015-11-12T15:45:08.3700000,-0.001465,-0.015625,0.985352,24.740977,0.183105,0.549316,0.305176,37.939451,17.138671,62.548825
2015-11-12T15:45:08.3800000,-0.00293,-0.018066,0.987305,24.723006,0.244141,0.549316,0.305176,37.939451,17.138671,62.548825
2015-11-12T15:45:08.3900000,-0.003906,-0.015625,0.981445,24.720011,0.244141,0.610352,0.305176,37.939451,17.138671,62.548825
2015-11-12T15:45:08.4000000,-0.001953,-0.01416,0.982422,24.728996,0.244141,0.549316,0.183105,37.939451,17.138671,62.548825
2015-11-12T15:45:08.4100000,-0.002441,-0.015625,0.988281,24.731992,0.183105,0.610352,0.366211,38.964842,18.164062,62.695309
2015-11-12T15:45:08.4200000,-0.002441,-0.015137,0.983398,24.720011,0.244141,0.549316,0.305176,38.964842,18.164062,62.695309
2015-11-12T15:45:08.4300000,-0.001465,-0.014648,0.981445,24.720011,0.366211,0.488281,0.366211,38.964842,18.164062,62.695309
2015-11-12T15:45:08.4400000,0,-0.016113,0.983398,24.737982,0.244141,0.549316,0.366211,38.964842,18.164062,62.695309
2015-11-12T15:45:08.4500000,-0.001465,-0.015625,0.98291,24.705035,0.183105,0.610352,0.305176,38.964842,18.164062,62.695309
2015-11-12T15:45:08.4600000,-0.000488,-0.016602,0.984863,24.743972,0.183105,0.610352,0.305176,38.964842,18.164062,62.695309
2015-11-12T15:45:08.4700000,-0.002441,-0.015625,0.984375,24.726001,0.12207,0.610352,0.366211,38.964842,18.164062,62.695309
2015-11-12T15:45:08.4800000,-0.001465,-0.014648,0.983887,24.696049,0.244141,0.610352,0.244141,38.964842,18.164062,62.695309
2015-11-12T15:45:08.4900000,-0.002441,-0.016602,0.980469,24.726001,0.244141,0.549316,0.183105,38.964842,18.164062,62.695309
2015-11-12T15:45:08.5000000,-0.003906,-0.015625,0.983398,24.711025,0.183105,0.549316,0.183105,38.964842,18.164062,62.695309
2015-11-12T15:45:08.5100000,-0.00293,-0.016602,0.983398,24.726001,0.183105,0.549316,0.244141,38.964842,18.164062,62.695309
2015-11-12T15:45:08.5200000,-0.001953,-0.018066,0.981934,24.737982,0.244141,0.610352,0.305176,38.964842,18.164062,62.695309
2015-11-12T15:45:08.5300000,-0.001465,-0.016113,0.984863,24.728996,0.305176,0.610352,0.366211,38.964842,18.164062,62.695309
2015-11-12T15:45:08.5400000,-0.000977,-0.015137,0.98291,24.728996,0.244141,0.549316,0.427246,38.23242,15.380859,62.255856
2015-11-12T15:45:08.5500000,-0.003418,-0.015625,0.986328,24.728996,0.305176,0.549316,0.366211,38.23242,15.380859,62.255856
2015-11-12T15:45:08.5600000,-0.003418,-0.016602,0.980469,24.723006,0.244141,0.610352,0.244141,38.23242,15.380859,62.255856
2015-11-12T15:45:08.5700000,-0.001953,-0.015625,0.980469,24.734987,0.244141,0.610352,0.305176,38.23242,15.380859,62.255856
2015-11-12T15:45:08.5800000,-0.000488,-0.015137,0.982422,24.734987,0.305176,0.549316,0.366211,38.23242,15.380859,62.255856
2015-11-12T15:45:08.5900000,-0.001465,-0.015625,0.983398,24.705035,0.244141,0.549316,0.244141,38.23242,15.380859,62.255856
2015-11-12T15:45:08.6000000,-0.00293,-0.016113,0.981445,24.731992,0.305176,0.549316,0.305176,38.23242,15.380859,62.255856
2015-11-12T15:45:08.6100000,-0.000977,-0.017578,0.984375,24.734987,0.305176,0.549316,0.366211,38.23242,15.380859,62.255856
2015-11-12T15:45:08.6200000,-0.00293,-0.016113,0.986328,24.728996,0.305176,0.610352,0.305176,38.23242,15.380859,62.255856
2015-11-12T15:45:08.6300000,-0.004395,-0.016113,0.98291,24.728996,0.244141,0.549316,0.244141,38.23242,15.380859,62.255856
2015-11-12T15:45:08.6400000,-0.003418,-0.01709,0.983398,24.723006,0.183105,0.549316,0.305176,38.23242,15.380859,62.255856
2015-11-12T15:45:08.6500000,-0.002441,-0.016602,0.984863,24.723006,0.183105,0.549316,0.244141,38.23242,15.380859,62.255856
2015-11-12T15:45:08.6600000,-0.000488,-0.015137,0.981445,24.731992,0.244141,0.610352,0.366211,39.111326,16.845702,62.255856
2015-11-12T15:45:08.6700000,-0.00293,-0.016113,0.983887,24.723006,0.305176,0.610352,0.366211,39.111326,16.845702,62.255856
2015-11-12T15:45:08.6800000,-0.001953,-0.015625,0.984863,24.749963,0.305176,0.549316,0.305176,39.111326,16.845702,62.255856
2015-11-12T15:45:08.6900000,-0.003906,-0.014648,0.985352,24.726001,0.305176,0.549316,0.305176,39.111326,16.845702,62.255856
2015-11-12T15:45:08.7000000,-0.000977,-0.015137,0.98291,24.731992,0.244141,0.549316,0.244141,39.111326,16.845702,62.255856
2015-11-12T15:45:08.7100000,-0.002441,-0.016113,0.984863,24.728996,0.244141,0.549316,0.305176,39.111326,16.845702,62.255856
2015-11-12T15:45:08.7200000,-0.002441,-0.016113,0.984863,24.705035,0.244141,0.610352,0.305176,39.111326,16.845702,62.255856
2015-11-12T15:45:08.7300000,-0.001953,-0.016602,0.98291,24.705035,0.305176,0.671387,0.366211,39.111326,16.845702,62.255856
2015-11-12T15:45:08.7400000,-0.00293,-0.013672,0.983398,24.70803,0.183105,0.549316,0.427246,39.111326,16.845702,62.255856
2015-11-12T15:45:08.7500000,-0.001465,-0.016602,0.981934,24.70803,0.244141,0.549316,0.244141,39.111326,16.845702,62.255856
2015-11-12T15:45:08.7600000,-0.000977,-0.015137,0.982422,24.70204,0.244141,0.549316,0.305176,39.111326,16.845702,62.255856
2015-11-12T15:45:08.7700000,-0.001465,-0.015137,0.982422,24.728996,0.183105,0.549316,0.305176,39.111326,16.845702,62.255856
2015-11-12T15:45:08.7800000,-0.000488,-0.016113,0.983887,24.726001,0.244141,0.549316,0.305176,39.111326,16.845702,62.255856
2015-11-12T15:45:08.7900000,-0.002441,-0.015137,0.984375,24.731992,0.183105,0.549316,0.305176,37.499998,17.578124,62.402341
2015-11-12T15:45:08.8000000,-0.001953,-0.01416,0.984375,24.726001,0.244141,0.488281,0.244141,37.499998,17.578124,62.402341
2015-11-12T15:45:08.8100000,-0.000977,-0.015625,0.983887,24.726001,0.244141,0.549316,0.305176,37.499998,17.578124,62.402341
2015-11-12T15:45:08.8200000,-0.002441,-0.015137,0.981934,24.726001,0.244141,0.549316,0.305176,37.499998,17.578124,62.402341
2015-11-12T15:45:08.8300000,-0.000977,-0.016602,0.981445,24.726001,0.305176,0.488281,0.244141,37.499998,17.578124,62.402341
2015-11-12T15:45:08.8400000,-0.000977,-0.014648,0.983398,24.717016,0.183105,0.549316,0.305176,37.499998,17.578124,62.402341
2015-11-12T15:45:08.8500000,-0.00293,-0.014648,0.98584,24.723006,0.244141,0.488281,0.305176,37.499998,17.578124,62.402341
2015-11-12T15:45:08.8600000,-0.001953,-0.015625,0.982422,24.726001,0.244141,0.549316,0.244141,37.499998,17.578124,62.402341
2015-11-12T15:45:08.8700000,-0.001953,-0.016602,0.98291,24.723006,0.244141,0.549316,0.305176,37.499998,17.578124,62.402341
2015-11-12T15:45:08.8800000,-0.00293,-0.016113,0.981445,24.731992,0.244141,0.549316,0.244141,37.499998,17.578124,62.402341
2015-11-12T15:45:08.8900000,-0.001953,-0.014648,0.982422,24.70803,0.183105,0.549316,0.244141,37.499998,17.578124,62.402341
2015-11-12T15:45:08.9000000,-0.001953,-0.016602,0.984863,24.711025,0.183105,0.610352,0.183105,37.499998,17.578124,62.402341
2015-11-12T15:45:08.9100000,-0.00293,-0.016113,0.986816,24.696049,0.183105,0.549316,0.305176,38.671873,17.578124,61.816403
2015-11-12T15:45:08.9200000,-0.00293,-0.015625,0.984375,24.705035,0.183105,0.488281,0.366211,38.671873,17.578124,61.816403
2015-11-12T15:45:08.9300000,-0.00293,-0.015625,0.983887,24.720011,0.305176,0.610352,0.305176,38.671873,17.578124,61.816403
2015-11-12T15:45:08.9400000,-0.00293,-0.017578,0.980469,24.728996,0.183105,0.549316,0.427246,38.671873,17.578124,61.816403
2015-11-12T15:45:08.9500000,-0.00293,-0.016113,0.98291,24.705035,0.244141,0.610352,0.366211,38.671873,17.578124,61.816403
2015-11-12T15:45:08.9600000,-0.00293,-0.015137,0.986328,24.734987,0.244141,0.549316,0.305176,38.671873,17.578124,61.816403
2015-11-12T15:45:08.9700000,-0.002441,-0.01416,0.981934,24.720011,0.183105,0.427246,0.366211,38.671873,17.578124,61.816403
2015-11-12T15:45:08.9800000,-0.003418,-0.015137,0.986816,24.734987,0.183105,0.488281,0.244141,38.671873,17.578124,61.816403
2015-11-12T15:45:08.9900000,-0.003418,-0.016113,0.98291,24.734987,0.244141,0.549316,0.305176,38.671873,17.578124,61.816403
2015-11-12T15:45:09.0000000,-0.002441,-0.016113,0.983398,24.737982,0.244141,0.549316,0.305176,38.671873,17.578124,61.816403
2015-11-12T15:45:09.0100000,-0.003418,-0.01709,0.982422,24.723006,0.244141,0.549316,0.305176,38.671873,17.578124,61.816403
2015-11-12T15:45:09.0200000,-0.002441,-0.013672,0.984375,24.717016,0.183105,0.549316,0.244141,38.671873,17.578124,61.816403
2015-11-12T15:45:09.0300000,-0.001465,-0.01416,0.980469,24.734987,0.12207,0.549316,0.305176,38.671873,17.578124,61.816403
2015-11-12T15:45:09.0400000,-0.000977,-0.015137,0.984375,24.731992,0.183105,0.549316,0.366211,38.23242,17.43164,62.548825
2015-11-12T15:45:09.0500000,-0.002441,-0.015625,0.984375,24.743972,0.12207,0.549316,0.305176,38.23242,17.43164,62.548825
2015-11-12T15:45:09.0600000,-0.001953,-0.015625,0.981934,24.71402,0.183105,0.610352,0.305176,38.23242,17.43164,62.548825
2015-11-12T15:45:09.0700000,-0.001953,-0.015137,0.978027,24.728996,0.183105,0.610352,0.366211,38.23242,17.43164,62.548825
2015-11-12T15:45:09.0800000,-0.002441,-0.016113,0.981934,24.743972,0.244141,0.488281,0.305176,38.23242,17.43164,62.548825
2015-11-12T15:45:09.0900000,0.000488,-0.017578,0.983887,24.755953,0.183105,0.488281,0.244141,38.23242,17.43164,62.548825
2015-11-12T15:45:09.1000000,-0.001953,-0.016602,0.984375,24.755953,0.305176,0.549316,0.366211,38.23242,17.43164,62.548825
2015-11-12T15:45:09.1100000,-0.000977,-0.015625,0.978027,24.737982,0.244141,0.488281,0.366211,38.23242,17.43164,62.548825
2015-11-12T15:45:09.1200000,-0.000977,-0.016113,0.981445,24.731992,0.183105,0.427246,0.305176,38.23242,17.43164,62.548825
2015-11-12T15:45:09.1300000,-0.002441,-0.014648,0.983398,24.755953,0.244141,0.488281,0.305176,38.23242,17.43164,62.548825
2015-11-12T15:45:09.1400000,-0.001465,-0.01416,0.984863,24.749963,0.244141,0.549316,0.244141,38.23242,17.43164,62.548825
2015-11-12T15:45:09.1500000,-0.002441,-0.015137,0.98291,24.737982,0.305176,0.549316,0.305176,38.23242,17.43164,62.548825
2015-11-12T15:45:09.1600000,-0.001465,-0.01416,0.984863,24.749963,0.183105,0.549316,0.305176,38.671873,16.699218,62.109372
2015-11-12T15:45:09.1700000,-0.002441,-0.016113,0.983887,24.746967,0.244141,0.549316,0.305176,38.671873,16.699218,62.109372
2015-11-12T15:45:09.1800000,-0.000977,-0.015625,0.980957,24.731992,0.244141,0.488281,0.305176,38.671873,16.699218,62.109372
2015-11-12T15:45:09.1900000,-0.003906,-0.016602,0.980957,24.737982,0.244141,0.610352,0.244141,38.671873,16.699218,62.109372
2015-11-12T15:45:09.2000000,-0.00293,-0.016113,0.984863,24.740977,0.244141,0.549316,0.244141,38.671873,16.699218,62.109372
2015-11-12T15:45:09.2100000,-0.000977,-0.013672,0.981934,24.740977,0.305176,0.549316,0.366211,38.671873,16.699218,62.109372
2015-11-12T15:45:09.2200000,-0.000977,-0.016602,0.983398,24.731992,0.244141,0.549316,0.366211,38.671873,16.699218,62.109372
2015-11-12T15:45:09.2300000,-0.001953,-0.015625,0.980957,24.723006,0.244141,0.610352,0.305176,38.671873,16.699218,62.109372
2015-11-12T15:45:09.2400000,-0.002441,-0.016113,0.983398,24.728996,0.183105,0.671387,0.305176,38.671873,16.699218,62.109372
2015-11-12T15:45:09.2500000,-0.002441,-0.016602,0.985352,24.737982,0.244141,0.610352,0.244141,38.671873,16.699218,62.109372
2015-11-12T15:45:09.2600000,-0.002441,-0.01709,0.982422,24.734987,0.244141,0.610352,0.244141,38.671873,16.699218,62.109372
2015-11-12T15:45:09.2700000,-0.000977,-0.01416,0.984863,24.731992,0.244141,0.549316,0.305176,38.671873,16.699218,62.109372
2015-11-12T15:45:09.2800000,-0.000977,-0.015625,0.985352,24.723006,0.244141,0.488281,0.244141,38.671873,16.699218,62.109372
2015-11-12T15:45:09.2900000,-0.002441,-0.016113,0.988281,24.731992,0.305176,0.488281,0.244141,38.23242,17.43164,61.669919
2015-11-12T15:45:09.3000000,-0.001465,-0.015137,0.986328,24.728996,0.244141,0.549316,0.305176,38.23242,17.43164,61.669919
2015-11-12T15:45:09.3100000,-0.002441,-0.014648,0.983398,24.743972,0.305176,0.549316,0.366211,38.23242,17.43164,61.669919
2015-11-12T15:45:09.3200000,-0.002441,-0.016113,0.984863,24.728996,0.244141,0.610352,0.366211,38.23242,17.43164,61.669919
2015-11-12T15:45:09.3300000,-0.003906,-0.016602,0.98291,24.723006,0.244141,0.549316,0.305176,38.23242,17.43164,61.669919
2015-11-12T15:45:09.3400000,-0.000977,-0.015137,0.98291,24.728996,0.366211,0.671387,0.305176,38.23242,17.43164,61.669919
2015-11-12T15:45:09.3500000,-0.002441,-0.014648,0.987305,24.723006,0.244141,0.549316,0.305176,38.23242,17.43164,61.669919
2015-11-12T15:45:09.3600000,-0.002441,-0.01709,0.980957,24.749963,0.305176,0.610352,0.244141,38.23242,17.43164,61.669919
2015-11-12T15:45:09.3700000,-0.002441,-0.015137,0.983887,24.726001,0.183105,0.488281,0.244141,38.23242,17.43164,61.669919
2015-11-12T15:45:09.3800000,-0.001465,-0.01709,0.983398,24.752958,0.12207,0.549316,0.244141,38.23242,17.43164,61.669919
2015-11-12T15:45:09.3900000,-0.00293,-0.016602,0.985352,24.743972,0.061035,0.488281,0.366211,38.23242,17.43164,61.669919
2015-11-12T15:45:09.4000000,-0.003418,-0.017578,0.980957,24.737982,0.183105,0.488281,0.366211,38.23242,17.43164,61.669919
2015-11-12T15:45:09.4100000,-0.001953,-0.01416,0.985352,24.731992,0.183105,0.610352,0.305176,38.23242,17.724609,62.255856
2015-11-12T15:45:09.4200000,-0.003418,-0.015625,0.986328,24.749963,0.244141,0.549316,0.366211,38.23242,17.724609,62.255856
2015-11-12T15:45:09.4300000,-0.003418,-0.015625,0.984375,24.731992,0.244141,0.610352,0.305176,38.23242,17.724609,62.255856
2015-11-12T15:45:09.4400000,-0.002441,-0.015625,0.97998,24.731992,0.244141,0.610352,0.305176,38.23242,17.724609,62.255856
2015-11-12T15:45:09.4500000,-0.000977,-0.014648,0.985352,24.734987,0.244141,0.549316,0.427246,38.23242,17.724609,62.255856
2015-11-12T15:45:09.4600000,-0.004395,-0.016113,0.980957,24.728996,0.244141,0.549316,0.244141,38.23242,17.724609,62.255856
2015-11-12T15:45:09.4700000,-0.000488,-0.017578,0.980957,24.728996,0.244141,0.549316,0.244141,38.23242,17.724609,62.255856
2015-11-12T15:45:09.4800000,-0.001953,-0.015625,0.983398,24.734987,0.244141,0.549316,0.305176,38.23242,17.724609,62.255856
2015-11-12T15:45:09.4900000,-0.001465,-0.014648,0.981445,24.726001,0.183105,0.610352,0.305176,38.23242,17.724609,62.255856
2015-11-12T15:45:09.5000000,0,-0.016113,0.98291,24.734987,0.244141,0.549316,0.244141,38.23242,17.724609,62.255856
2015-11-12T15:45:09.5100000,-0.002441,-0.014648,0.983398,24.71402,0.183105,0.610352,0.305176,38.23242,17.724609,62.255856
2015-11-12T15:45:09.5200000,-0.000977,-0.015137,0.981445,24.71402,0.244141,0.671387,0.305176,38.23242,17.724609,62.255856
2015-11-12T15:45:09.5300000,-0.001465,-0.01709,0.983887,24.705035,0.244141,0.610352,0.305176,38.23242,17.724609,62.255856
2015-11-12T15:45:09.5400000,-0.000977,-0.016113,0.984375,24.705035,0.244141,0.549316,0.366211,37.792967,16.699218,60.644528
2015-11-12T15:45:09.5500000,-0.001953,-0.016602,0.984863,24.731992,0.244141,0.549316,0.366211,37.792967,16.699218,60.644528
2015-11-12T15:45:09.5600000,-0.002441,-0.014648,0.984863,24.734987,0.183105,0.488281,0.305176,37.792967,16.699218,60.644528
2015-11-12T15:45:09.5700000,-0.000488,-0.015625,0.981445,24.734987,0.244141,0.549316,0.305176,37.792967,16.699218,60.644528
2015-11-12T15:45:09.5800000,-0.003906,-0.016113,0.981934,24.726001,0.244141,0.549316,0.305176,37.792967,16.699218,60.644528
2015-11-12T15:45:09.5900000,-0.002441,-0.014648,0.980469,24.737982,0.305176,0.732422,0.244141,37.792967,16.699218,60.644528
2015-11-12T15:45:09.6000000,-0.00293,-0.01416,0.981934,24.749963,0.244141,0.610352,0.366211,37.792967,16.699218,60.644528
2015-11-12T15:45:09.6100000,-0.001953,-0.014648,0.983887,24.743972,0.183105,0.549316,0.305176,37.792967,16.699218,60.644528
2015-11-12T15:45:09.6200000,-0.002441,-0.015137,0.984863,24.71402,0.183105,0.549316,0.305176,37.792967,16.699218,60.644528
2015-11-12T15:45:09.6300000,-0.002441,-0.016113,0.983887,24.717016,0.244141,0.610352,0.244141,37.792967,16.699218,60.644528
2015-11-12T15:45:09.6400000,-0.00293,-0.015137,0.981934,24.726001,0.305176,0.549316,0.305176,37.792967,16.699218,60.644528
2015-11-12T15:45:09.6500000,-0.000977,-0.016113,0.984863,24.731992,0.244141,0.549316,0.244141,37.792967,16.699218,60.644528
2015-11-12T15:45:09.6600000,-0.003418,-0.015625,0.983887,24.723006,0.244141,0.549316,0.305176,37.792967,16.699218,60.644528
2015-11-12T15:45:09.6700000,-0.001953,-0.015625,0.985352,24.734987,0.183105,0.488281,0.366211,37.353514,16.259765,60.791013
2015-11-12T15:45:09.6800000,-0.001465,-0.01709,0.98291,24.728996,0.183105,0.488281,0.305176,37.353514,16.259765,60.791013
2015-11-12T15:45:09.6900000,-0.002441,-0.014648,0.980469,24.71402,0.12207,0.549316,0.305176,37.353514,16.259765,60.791013
2015-11-12T15:45:09.7000000,-0.001465,-0.015625,0.984863,24.723006,0.183105,0.549316,0.305176,37.353514,16.259765,60.791013
